"success","timeout","failed_images","failed_audio","failed_video","trial_type","trial_index","time_elapsed","internal_node_id","subject_id","rt","stimulus","response","question_order","slider_start","image_path","practiceTrial","practiceTrialNum","correct","slider_labels"
"true","false","[]","[]","[]","preload","0","531","0.0-0.0","1puhqn41nl","","","","","","","","","",""
"","","","","","html-button-response","1","111163","0.0-1.0","1puhqn41nl","110625","<div style='text-align:center; font-size:20px; line-height:25px; width: 1200px;'>
                Welcome to our experiment! <br>
                <br>At the bottom of this screen, you will see a button that says 'Begin Experiment.
                <br>Please only click that button when you are ready to complete the 25 minute experiment in one sitting. <br>
                <br> Once you click that button, it will not be possible to restart the experiment. <br><br>","0","","","","","","",""
"true","","","","","fullscreen","2","113431","0.0-2.0","1puhqn41nl","1248","","","","","","","","",""
"","","","","","survey-multi-select","3","119936","0.0-3.0","1puhqn41nl","6493","","{""Consent"":[""<strong>I consent</strong>""]}","[0]","","","","","",""
"","","","","","html-button-response","4","121119","0.0-4.0","1puhqn41nl","1180","Welcome! <p> This experiment involves two parts: demographic information, followed by the experimental task.<p> It will take about 25 minutes to complete both parts.","0","","","","","","",""
"","","","","","survey-text","5","127987","0.0-5.0","1puhqn41nl","6857","","{""Age"":""20"",""Gender"":""Female"",""Race/ethnicity"":""White""}","","","","","","",""
"","","","","","html-slider-response","6","132055","0.0-6.0","1puhqn41nl","4061","
                <div style='text-align:center; height: auto; margin-left=-100px; margin-bottom: -20px; font-size:20px; line-height:5px; width: 1200px;'>
                    <br>During this experiment, you will see a series of textures, one at a time, like the ones below: 
                </div>
                    <br>
                    <br>
                    <img src=""anchoring_visual_textures.png"" alt=""img"" style=""max-width:1200px; margin-left: -10px;"">
                </div>
                <div style=""clear: both;""></div>
                </div>
                    <div style='text-align:center; margin-left=-100px; font-size:20px; line-height:20px; width: 1200px; margin-top: -50px;'>
                    
                    <br> For each texture, you will be asked to rate where you think it falls on each of the response scales with the following endpoints:
                    </div>
                            <div style=""text-align: center; width: 1400px; "">
                                <p style=""font-size:20px; line-height:5px; ""><b>Blobby</b> versus <b>Stripey</b></p>
                                <p style=""font-size:20px; line-height:5px; ""><b>Rounded</b> versus <b>Rectangular</b></p>
                                <p style=""font-size:20px;line-height:5px;""><b>Coarse</b> versus <b>Fine</b></p>
                                <p style=""font-size:20px;line-height:5px; ""><b>Rough</b> versus <b>Smooth</b></p>
                                <p style=""font-size:20px;line-height:5px; ""><b>Random</b> versus <b>Non-Random</b></p>
                                <p style=""font-size:20px;line-height:5px;""><b>Hard</b> versus <b>Soft</b></p>
                            </div>
                            <div style='text-align:center; font-size:20px; line-height:20px; width: 1400px;'>
                    
                    Each trial will include one texture and one response scale. You will be asked to make your rating by sliding the cursor along a slider response scale like the one below.
                    <br><br> Before beginning, please look at the textures and scales. For each scale, think about the texture you associate most with the left endpoint. When you see that texture for that response scale, please click near the left of the scale.
                    <br><br> Now, please think about the texture you associate most with the right endpoint of each scale. When you see that texture for that response scale, please click near the right of the scale. 
                    <br><br> If you think a texture is not strongly associated with either endpoint of the scale, please click near the midpoint of the scale. Please use the full range of the scale. 
                    <br><br> You will be asked to rate each texture for a given scale before moving on to the next scale.
                    <br><br> Please press the 'Continue' button for instructions on how to use the slider.                     <br><br>
                ","null","","0","visual_textures_anchoring.png","true","","",""
"","","","","","html-button-response","7","134584","0.0-7.0","1puhqn41nl","2525","<div style=""width:1200px; margin-top:-150px;""><p style=""text-align:center; font-size:24px;"">To move the slider, click and drag your cursor to the location of the scale where you would like to make your rating and then let go. <br><br> When you let go of the slider, your response will be recorded and the next trial will begin. <br><br><br>
                We are interested in your initial impressions of each texture and scale, so please go with your first intuition. <br><br>
                Before you begin the experiment, there will be four training trials for you to practice using the scale. <br><br><br><br></div>
                <div style=""width:1200px;""><p style=""text-align:center; font-size:20px;"">When you are ready to start the training trials, please click ""Continue"".</p></div>","0","","","","","","",""
"","","","","","html-slider-response","8","137355","0.0-8.0-0.0","1puhqn41nl","NaN","<div style=""width:500px;"">
                                <p style=""font-size:25px;"">Please move the slider all the way to the <br> right endpoint of the scale</p>

                                </div>
                            </div>","200","","0","","true","0","true",""
"","","","","","html-button-response","9","138959","0.0-8.0-1.0","1puhqn41nl","1093","<p align='center'><b>Good job!</b> Click on 'Continue' to proceed.</p>","0","","","","","","",""
"","","","","","html-slider-response","10","140534","0.0-9.0-0.0","1puhqn41nl","NaN","<div style=""width:500px;"">
                                <p style=""font-size:25px;"">Please move the slider all the way to the <br> left endpoint of the scale</p>

                                </div>
                            </div>","-200","","0","","true","1","true",""
"","","","","","html-button-response","11","141908","0.0-9.0-1.0","1puhqn41nl","869","<p align='center'><b>Good job!</b> Click on 'Continue' to proceed.</p>","0","","","","","","",""
"","","","","","html-slider-response","12","146258","0.0-10.0-0.0","1puhqn41nl","NaN","<div style=""width:500px;"">
                                <p style=""font-size:25px;"">Please move the slider halfway between the center and right endpoint of the scale</p>

                                </div>
                            </div>","110","","0","","true","2","true",""
"","","","","","html-button-response","13","147503","0.0-10.0-1.0","1puhqn41nl","726","<p align='center'><b>Good job!</b> Click on 'Continue' to proceed.</p>","0","","","","","","",""
"","","","","","html-slider-response","14","150299","0.0-11.0-0.0","1puhqn41nl","NaN","<div style=""width:500px;"">
                                <p style=""font-size:25px;"">Please move the slider halfway between the center and left endpoint of the scale</p>

                                </div>
                            </div>","-103","","0","","true","3","true",""
"","","","","","html-button-response","15","151422","0.0-11.0-1.0","1puhqn41nl","604","<p align='center'><b>Good job!</b> Click on 'Continue' to proceed.</p>","0","","","","","","",""
"","","","","","html-button-response","16","152309","0.0-12.0","1puhqn41nl","883","<div style=""width:800px; margin-top:-300px;""><p style=""text-align:center; font-size:22px; line-height:25px;""""> Great job! You've completed the practice trials.</div>
                     <div style=""width:800px; margin-top:-20px;""><p style=""text-align:center""><br><br> In the following trials, you will be asked to rate textures on each scale one-by-one. <br> You will be given opportunities to take breaks when you have completed each block of trials. There are six total blocks of trials. <br><br> Please click continue to begin the main task.<br><br><br> </div>","0","","","","","","",""
"","","","","","html-button-response","17","152890","0.0-13.0","1puhqn41nl","578","In the following trials, you will be asked to rate textures on the scale <b>Blobby</b> versus <b>Stripey</b>. Please click 'Continue' when you are ready proceed.","0","","","","","","",""
"","","","","","html-slider-response","18","155401","0.0-14.0","1puhqn41nl","NaN","<div style=""width:500px;"">
                                <p style=""font-size:50px; font-weight:bold;""
                                ></p>
                                <div style=""width:240px; margin: auto;"">
                                    <img src=""images/D17.png"" style= ""width:200px""alt=""img"">
                                </div>
                            </div>","98","","0","images/D17.png","","","","[""Blobby"",""Stripey""]"
"","","","","","html-slider-response","19","157860","0.0-15.0","1puhqn41nl","NaN","<div style=""width:500px;"">
                                <p style=""font-size:50px; font-weight:bold;""
                                ></p>
                                <div style=""width:240px; margin: auto;"">
                                    <img src=""images/D11.png"" style= ""width:200px""alt=""img"">
                                </div>
                            </div>","150","","0","images/D11.png","","","","[""Blobby"",""Stripey""]"
"","","","","","html-slider-response","20","160948","0.0-16.0","1puhqn41nl","NaN","<div style=""width:500px;"">
                                <p style=""font-size:50px; font-weight:bold;""
                                ></p>
                                <div style=""width:240px; margin: auto;"">
                                    <img src=""images/D4.png"" style= ""width:200px""alt=""img"">
                                </div>
                            </div>","-114","","0","images/D4.png","","","","[""Blobby"",""Stripey""]"
"","","","","","html-slider-response","21","163241","0.0-17.0","1puhqn41nl","NaN","<div style=""width:500px;"">
                                <p style=""font-size:50px; font-weight:bold;""
                                ></p>
                                <div style=""width:240px; margin: auto;"">
                                    <img src=""images/D21.png"" style= ""width:200px""alt=""img"">
                                </div>
                            </div>","148","","0","images/D21.png","","","","[""Blobby"",""Stripey""]"
"","","","","","html-slider-response","22","164923","0.0-18.0","1puhqn41nl","NaN","<div style=""width:500px;"">
                                <p style=""font-size:50px; font-weight:bold;""
                                ></p>
                                <div style=""width:240px; margin: auto;"">
                                    <img src=""images/D83.png"" style= ""width:200px""alt=""img"">
                                </div>
                            </div>","67","","0","images/D83.png","","","","[""Blobby"",""Stripey""]"
"","","","","","html-slider-response","23","167445","0.0-19.0","1puhqn41nl","NaN","<div style=""width:500px;"">
                                <p style=""font-size:50px; font-weight:bold;""
                                ></p>
                                <div style=""width:240px; margin: auto;"">
                                    <img src=""images/D56.png"" style= ""width:200px""alt=""img"">
                                </div>
                            </div>","161","","0","images/D56.png","","","","[""Blobby"",""Stripey""]"
"","","","","","html-slider-response","24","169331","0.0-20.0","1puhqn41nl","NaN","<div style=""width:500px;"">
                                <p style=""font-size:50px; font-weight:bold;""
                                ></p>
                                <div style=""width:240px; margin: auto;"">
                                    <img src=""images/D6.png"" style= ""width:200px""alt=""img"">
                                </div>
                            </div>","154","","0","images/D6.png","","","","[""Blobby"",""Stripey""]"
"","","","","","html-slider-response","25","171405","0.0-21.0","1puhqn41nl","NaN","<div style=""width:500px;"">
                                <p style=""font-size:50px; font-weight:bold;""
                                ></p>
                                <div style=""width:240px; margin: auto;"">
                                    <img src=""images/D9.png"" style= ""width:200px""alt=""img"">
                                </div>
                            </div>","-132","","0","images/D9.png","","","","[""Blobby"",""Stripey""]"
"","","","","","html-slider-response","26","175151","0.0-22.0","1puhqn41nl","NaN","<div style=""width:500px;"">
                                <p style=""font-size:50px; font-weight:bold;""
                                ></p>
                                <div style=""width:240px; margin: auto;"">
                                    <img src=""images/D87.png"" style= ""width:200px""alt=""img"">
                                </div>
                            </div>","-62","","0","images/D87.png","","","","[""Blobby"",""Stripey""]"
"","","","","","html-slider-response","27","177791","0.0-23.0","1puhqn41nl","NaN","<div style=""width:500px;"">
                                <p style=""font-size:50px; font-weight:bold;""
                                ></p>
                                <div style=""width:240px; margin: auto;"">
                                    <img src=""images/D16.png"" style= ""width:200px""alt=""img"">
                                </div>
                            </div>","119","","0","images/D16.png","","","","[""Blobby"",""Stripey""]"
"","","","","","html-slider-response","28","179546","0.0-24.0","1puhqn41nl","NaN","<div style=""width:500px;"">
                                <p style=""font-size:50px; font-weight:bold;""
                                ></p>
                                <div style=""width:240px; margin: auto;"">
                                    <img src=""images/D1.png"" style= ""width:200px""alt=""img"">
                                </div>
                            </div>","108","","0","images/D1.png","","","","[""Blobby"",""Stripey""]"
"","","","","","html-slider-response","29","181212","0.0-25.0","1puhqn41nl","NaN","<div style=""width:500px;"">
                                <p style=""font-size:50px; font-weight:bold;""
                                ></p>
                                <div style=""width:240px; margin: auto;"">
                                    <img src=""images/D46.png"" style= ""width:200px""alt=""img"">
                                </div>
                            </div>","108","","0","images/D46.png","","","","[""Blobby"",""Stripey""]"
"","","","","","html-slider-response","30","183027","0.0-26.0","1puhqn41nl","NaN","<div style=""width:500px;"">
                                <p style=""font-size:50px; font-weight:bold;""
                                ></p>
                                <div style=""width:240px; margin: auto;"">
                                    <img src=""images/D3.png"" style= ""width:200px""alt=""img"">
                                </div>
                            </div>","-92","","0","images/D3.png","","","","[""Blobby"",""Stripey""]"
"","","","","","html-slider-response","31","184631","0.0-27.0","1puhqn41nl","NaN","<div style=""width:500px;"">
                                <p style=""font-size:50px; font-weight:bold;""
                                ></p>
                                <div style=""width:240px; margin: auto;"">
                                    <img src=""images/D55.png"" style= ""width:200px""alt=""img"">
                                </div>
                            </div>","52","","0","images/D55.png","","","","[""Blobby"",""Stripey""]"
"","","","","","html-slider-response","32","186326","0.0-28.0","1puhqn41nl","NaN","<div style=""width:500px;"">
                                <p style=""font-size:50px; font-weight:bold;""
                                ></p>
                                <div style=""width:240px; margin: auto;"">
                                    <img src=""images/D19.png"" style= ""width:200px""alt=""img"">
                                </div>
                            </div>","-33","","0","images/D19.png","","","","[""Blobby"",""Stripey""]"
"","","","","","html-slider-response","33","187819","0.0-29.0","1puhqn41nl","NaN","<div style=""width:500px;"">
                                <p style=""font-size:50px; font-weight:bold;""
                                ></p>
                                <div style=""width:240px; margin: auto;"">
                                    <img src=""images/D76.png"" style= ""width:200px""alt=""img"">
                                </div>
                            </div>","15","","0","images/D76.png","","","","[""Blobby"",""Stripey""]"
"","","","","","html-slider-response","34","189061","0.0-30.0","1puhqn41nl","NaN","<div style=""width:500px;"">
                                <p style=""font-size:50px; font-weight:bold;""
                                ></p>
                                <div style=""width:240px; margin: auto;"">
                                    <img src=""images/D37.png"" style= ""width:200px""alt=""img"">
                                </div>
                            </div>","15","","0","images/D37.png","","","","[""Blobby"",""Stripey""]"
"","","","","","html-slider-response","35","190804","0.0-31.0","1puhqn41nl","NaN","<div style=""width:500px;"">
                                <p style=""font-size:50px; font-weight:bold;""
                                ></p>
                                <div style=""width:240px; margin: auto;"">
                                    <img src=""images/D66.png"" style= ""width:200px""alt=""img"">
                                </div>
                            </div>","-14","","0","images/D66.png","","","","[""Blobby"",""Stripey""]"
"","","","","","html-slider-response","36","192437","0.0-32.0","1puhqn41nl","NaN","<div style=""width:500px;"">
                                <p style=""font-size:50px; font-weight:bold;""
                                ></p>
                                <div style=""width:240px; margin: auto;"">
                                    <img src=""images/D8.png"" style= ""width:200px""alt=""img"">
                                </div>
                            </div>","-57","","0","images/D8.png","","","","[""Blobby"",""Stripey""]"
"","","","","","html-slider-response","37","193874","0.0-33.0","1puhqn41nl","NaN","<div style=""width:500px;"">
                                <p style=""font-size:50px; font-weight:bold;""
                                ></p>
                                <div style=""width:240px; margin: auto;"">
                                    <img src=""images/D77.png"" style= ""width:200px""alt=""img"">
                                </div>
                            </div>","58","","0","images/D77.png","","","","[""Blobby"",""Stripey""]"
"","","","","","html-slider-response","38","195599","0.0-34.0","1puhqn41nl","NaN","<div style=""width:500px;"">
                                <p style=""font-size:50px; font-weight:bold;""
                                ></p>
                                <div style=""width:240px; margin: auto;"">
                                    <img src=""images/D79.png"" style= ""width:200px""alt=""img"">
                                </div>
                            </div>","76","","0","images/D79.png","","","","[""Blobby"",""Stripey""]"
"","","","","","html-slider-response","39","196990","0.0-35.0","1puhqn41nl","NaN","<div style=""width:500px;"">
                                <p style=""font-size:50px; font-weight:bold;""
                                ></p>
                                <div style=""width:240px; margin: auto;"">
                                    <img src=""images/D75.png"" style= ""width:200px""alt=""img"">
                                </div>
                            </div>","-79","","0","images/D75.png","","","","[""Blobby"",""Stripey""]"
"","","","","","html-slider-response","40","198774","0.0-36.0","1puhqn41nl","NaN","<div style=""width:500px;"">
                                <p style=""font-size:50px; font-weight:bold;""
                                ></p>
                                <div style=""width:240px; margin: auto;"">
                                    <img src=""images/D106.png"" style= ""width:200px""alt=""img"">
                                </div>
                            </div>","78","","0","images/D106.png","","","","[""Blobby"",""Stripey""]"
"","","","","","html-slider-response","41","201372","0.0-37.0","1puhqn41nl","NaN","<div style=""width:500px;"">
                                <p style=""font-size:50px; font-weight:bold;""
                                ></p>
                                <div style=""width:240px; margin: auto;"">
                                    <img src=""images/D80.png"" style= ""width:200px""alt=""img"">
                                </div>
                            </div>","-58","","0","images/D80.png","","","","[""Blobby"",""Stripey""]"
"","","","","","html-slider-response","42","203007","0.0-38.0","1puhqn41nl","NaN","<div style=""width:500px;"">
                                <p style=""font-size:50px; font-weight:bold;""
                                ></p>
                                <div style=""width:240px; margin: auto;"">
                                    <img src=""images/D24.png"" style= ""width:200px""alt=""img"">
                                </div>
                            </div>","60","","0","images/D24.png","","","","[""Blobby"",""Stripey""]"
"","","","","","html-slider-response","43","204704","0.0-39.0","1puhqn41nl","NaN","<div style=""width:500px;"">
                                <p style=""font-size:50px; font-weight:bold;""
                                ></p>
                                <div style=""width:240px; margin: auto;"">
                                    <img src=""images/D103.png"" style= ""width:200px""alt=""img"">
                                </div>
                            </div>","60","","0","images/D103.png","","","","[""Blobby"",""Stripey""]"
"","","","","","html-slider-response","44","206573","0.0-40.0","1puhqn41nl","NaN","<div style=""width:500px;"">
                                <p style=""font-size:50px; font-weight:bold;""
                                ></p>
                                <div style=""width:240px; margin: auto;"">
                                    <img src=""images/D14.png"" style= ""width:200px""alt=""img"">
                                </div>
                            </div>","109","","0","images/D14.png","","","","[""Blobby"",""Stripey""]"
"","","","","","html-slider-response","45","208556","0.0-41.0","1puhqn41nl","NaN","<div style=""width:500px;"">
                                <p style=""font-size:50px; font-weight:bold;""
                                ></p>
                                <div style=""width:240px; margin: auto;"">
                                    <img src=""images/D51.png"" style= ""width:200px""alt=""img"">
                                </div>
                            </div>","187","","0","images/D51.png","","","","[""Blobby"",""Stripey""]"
"","","","","","html-slider-response","46","211034","0.0-42.0","1puhqn41nl","NaN","<div style=""width:500px;"">
                                <p style=""font-size:50px; font-weight:bold;""
                                ></p>
                                <div style=""width:240px; margin: auto;"">
                                    <img src=""images/D74.png"" style= ""width:200px""alt=""img"">
                                </div>
                            </div>","-175","","0","images/D74.png","","","","[""Blobby"",""Stripey""]"
"","","","","","html-slider-response","47","213563","0.0-43.0","1puhqn41nl","NaN","<div style=""width:500px;"">
                                <p style=""font-size:50px; font-weight:bold;""
                                ></p>
                                <div style=""width:240px; margin: auto;"">
                                    <img src=""images/D53.png"" style= ""width:200px""alt=""img"">
                                </div>
                            </div>","49","","0","images/D53.png","","","","[""Blobby"",""Stripey""]"
"","","","","","html-slider-response","48","215122","0.0-44.0","1puhqn41nl","NaN","<div style=""width:500px;"">
                                <p style=""font-size:50px; font-weight:bold;""
                                ></p>
                                <div style=""width:240px; margin: auto;"">
                                    <img src=""images/D92.png"" style= ""width:200px""alt=""img"">
                                </div>
                            </div>","-70","","0","images/D92.png","","","","[""Blobby"",""Stripey""]"
"","","","","","html-slider-response","49","216769","0.0-45.0","1puhqn41nl","NaN","<div style=""width:500px;"">
                                <p style=""font-size:50px; font-weight:bold;""
                                ></p>
                                <div style=""width:240px; margin: auto;"">
                                    <img src=""images/D85.png"" style= ""width:200px""alt=""img"">
                                </div>
                            </div>","107","","0","images/D85.png","","","","[""Blobby"",""Stripey""]"
"","","","","","html-slider-response","50","218617","0.0-46.0","1puhqn41nl","NaN","<div style=""width:500px;"">
                                <p style=""font-size:50px; font-weight:bold;""
                                ></p>
                                <div style=""width:240px; margin: auto;"">
                                    <img src=""images/D52.png"" style= ""width:200px""alt=""img"">
                                </div>
                            </div>","128","","0","images/D52.png","","","","[""Blobby"",""Stripey""]"
"","","","","","html-slider-response","51","220336","0.0-47.0","1puhqn41nl","NaN","<div style=""width:500px;"">
                                <p style=""font-size:50px; font-weight:bold;""
                                ></p>
                                <div style=""width:240px; margin: auto;"">
                                    <img src=""images/D64.png"" style= ""width:200px""alt=""img"">
                                </div>
                            </div>","98","","0","images/D64.png","","","","[""Blobby"",""Stripey""]"
"","","","","","html-slider-response","52","221955","0.0-48.0","1puhqn41nl","NaN","<div style=""width:500px;"">
                                <p style=""font-size:50px; font-weight:bold;""
                                ></p>
                                <div style=""width:240px; margin: auto;"">
                                    <img src=""images/D68.png"" style= ""width:200px""alt=""img"">
                                </div>
                            </div>","98","","0","images/D68.png","","","","[""Blobby"",""Stripey""]"
"","","","","","html-slider-response","53","223354","0.0-49.0","1puhqn41nl","NaN","<div style=""width:500px;"">
                                <p style=""font-size:50px; font-weight:bold;""
                                ></p>
                                <div style=""width:240px; margin: auto;"">
                                    <img src=""images/D84.png"" style= ""width:200px""alt=""img"">
                                </div>
                            </div>","98","","0","images/D84.png","","","","[""Blobby"",""Stripey""]"
"","","","","","html-slider-response","54","224720","0.0-50.0","1puhqn41nl","NaN","<div style=""width:500px;"">
                                <p style=""font-size:50px; font-weight:bold;""
                                ></p>
                                <div style=""width:240px; margin: auto;"">
                                    <img src=""images/D49.png"" style= ""width:200px""alt=""img"">
                                </div>
                            </div>","98","","0","images/D49.png","","","","[""Blobby"",""Stripey""]"
"","","","","","html-slider-response","55","226856","0.0-51.0","1puhqn41nl","NaN","<div style=""width:500px;"">
                                <p style=""font-size:50px; font-weight:bold;""
                                ></p>
                                <div style=""width:240px; margin: auto;"">
                                    <img src=""images/D81.png"" style= ""width:200px""alt=""img"">
                                </div>
                            </div>","-111","","0","images/D81.png","","","","[""Blobby"",""Stripey""]"
"","","","","","html-slider-response","56","233882","0.0-52.0","1puhqn41nl","NaN","<div style=""width:500px;"">
                                <p style=""font-size:50px; font-weight:bold;""
                                ></p>
                                <div style=""width:240px; margin: auto;"">
                                    <img src=""images/D101.png"" style= ""width:200px""alt=""img"">
                                </div>
                            </div>","-78","","0","images/D101.png","","","","[""Blobby"",""Stripey""]"
"","","","","","html-slider-response","57","235956","0.0-53.0","1puhqn41nl","NaN","<div style=""width:500px;"">
                                <p style=""font-size:50px; font-weight:bold;""
                                ></p>
                                <div style=""width:240px; margin: auto;"">
                                    <img src=""images/D25.png"" style= ""width:200px""alt=""img"">
                                </div>
                            </div>","49","","0","images/D25.png","","","","[""Blobby"",""Stripey""]"
"","","","","","html-slider-response","58","237200","0.0-54.0","1puhqn41nl","NaN","<div style=""width:500px;"">
                                <p style=""font-size:50px; font-weight:bold;""
                                ></p>
                                <div style=""width:240px; margin: auto;"">
                                    <img src=""images/D47.png"" style= ""width:200px""alt=""img"">
                                </div>
                            </div>","49","","0","images/D47.png","","","","[""Blobby"",""Stripey""]"
"","","","","","html-slider-response","59","238517","0.0-55.0","1puhqn41nl","NaN","<div style=""width:500px;"">
                                <p style=""font-size:50px; font-weight:bold;""
                                ></p>
                                <div style=""width:240px; margin: auto;"">
                                    <img src=""images/D78.png"" style= ""width:200px""alt=""img"">
                                </div>
                            </div>","99","","0","images/D78.png","","","","[""Blobby"",""Stripey""]"
"","","","","","html-slider-response","60","240041","0.0-56.0","1puhqn41nl","NaN","<div style=""width:500px;"">
                                <p style=""font-size:50px; font-weight:bold;""
                                ></p>
                                <div style=""width:240px; margin: auto;"">
                                    <img src=""images/D57.png"" style= ""width:200px""alt=""img"">
                                </div>
                            </div>","-117","","0","images/D57.png","","","","[""Blobby"",""Stripey""]"
"","","","","","html-slider-response","61","241283","0.0-57.0","1puhqn41nl","NaN","<div style=""width:500px;"">
                                <p style=""font-size:50px; font-weight:bold;""
                                ></p>
                                <div style=""width:240px; margin: auto;"">
                                    <img src=""images/D105.png"" style= ""width:200px""alt=""img"">
                                </div>
                            </div>","103","","0","images/D105.png","","","","[""Blobby"",""Stripey""]"
"","","","","","html-slider-response","62","243171","0.0-58.0","1puhqn41nl","NaN","<div style=""width:500px;"">
                                <p style=""font-size:50px; font-weight:bold;""
                                ></p>
                                <div style=""width:240px; margin: auto;"">
                                    <img src=""images/D36.png"" style= ""width:200px""alt=""img"">
                                </div>
                            </div>","-65","","0","images/D36.png","","","","[""Blobby"",""Stripey""]"
"","","","","","html-slider-response","63","244381","0.0-59.0","1puhqn41nl","NaN","<div style=""width:500px;"">
                                <p style=""font-size:50px; font-weight:bold;""
                                ></p>
                                <div style=""width:240px; margin: auto;"">
                                    <img src=""images/D18.png"" style= ""width:200px""alt=""img"">
                                </div>
                            </div>","49","","0","images/D18.png","","","","[""Blobby"",""Stripey""]"
"","","","","","html-slider-response","64","245549","0.0-60.0","1puhqn41nl","NaN","<div style=""width:500px;"">
                                <p style=""font-size:50px; font-weight:bold;""
                                ></p>
                                <div style=""width:240px; margin: auto;"">
                                    <img src=""images/D82.png"" style= ""width:200px""alt=""img"">
                                </div>
                            </div>","-72","","0","images/D82.png","","","","[""Blobby"",""Stripey""]"
"","","","","","html-slider-response","65","246915","0.0-61.0","1puhqn41nl","NaN","<div style=""width:500px;"">
                                <p style=""font-size:50px; font-weight:bold;""
                                ></p>
                                <div style=""width:240px; margin: auto;"">
                                    <img src=""images/D48.png"" style= ""width:200px""alt=""img"">
                                </div>
                            </div>","-70","","0","images/D48.png","","","","[""Blobby"",""Stripey""]"
"","","","","","html-slider-response","66","248742","0.0-62.0","1puhqn41nl","NaN","<div style=""width:500px;"">
                                <p style=""font-size:50px; font-weight:bold;""
                                ></p>
                                <div style=""width:240px; margin: auto;"">
                                    <img src=""images/D32.png"" style= ""width:200px""alt=""img"">
                                </div>
                            </div>","-105","","0","images/D32.png","","","","[""Blobby"",""Stripey""]"
"","","","","","html-slider-response","67","249981","0.0-63.0","1puhqn41nl","NaN","<div style=""width:500px;"">
                                <p style=""font-size:50px; font-weight:bold;""
                                ></p>
                                <div style=""width:240px; margin: auto;"">
                                    <img src=""images/D22.png"" style= ""width:200px""alt=""img"">
                                </div>
                            </div>","-109","","0","images/D22.png","","","","[""Blobby"",""Stripey""]"
"","","","","","html-slider-response","68","251280","0.0-64.0","1puhqn41nl","NaN","<div style=""width:500px;"">
                                <p style=""font-size:50px; font-weight:bold;""
                                ></p>
                                <div style=""width:240px; margin: auto;"">
                                    <img src=""images/D65.png"" style= ""width:200px""alt=""img"">
                                </div>
                            </div>","-78","","0","images/D65.png","","","","[""Blobby"",""Stripey""]"
"","","","","","html-slider-response","69","252639","0.0-65.0","1puhqn41nl","NaN","<div style=""width:500px;"">
                                <p style=""font-size:50px; font-weight:bold;""
                                ></p>
                                <div style=""width:240px; margin: auto;"">
                                    <img src=""images/D26.png"" style= ""width:200px""alt=""img"">
                                </div>
                            </div>","66","","0","images/D26.png","","","","[""Blobby"",""Stripey""]"
"","","","","","html-slider-response","70","254698","0.0-66.0","1puhqn41nl","NaN","<div style=""width:500px;"">
                                <p style=""font-size:50px; font-weight:bold;""
                                ></p>
                                <div style=""width:240px; margin: auto;"">
                                    <img src=""images/D34.png"" style= ""width:200px""alt=""img"">
                                </div>
                            </div>","-82","","0","images/D34.png","","","","[""Blobby"",""Stripey""]"
"","","","","","html-slider-response","71","256245","0.0-67.0","1puhqn41nl","NaN","<div style=""width:500px;"">
                                <p style=""font-size:50px; font-weight:bold;""
                                ></p>
                                <div style=""width:240px; margin: auto;"">
                                    <img src=""images/D96.png"" style= ""width:200px""alt=""img"">
                                </div>
                            </div>","138","","0","images/D96.png","","","","[""Blobby"",""Stripey""]"
"","","","","","html-slider-response","72","259672","0.0-68.0","1puhqn41nl","NaN","<div style=""width:500px;"">
                                <p style=""font-size:50px; font-weight:bold;""
                                ></p>
                                <div style=""width:240px; margin: auto;"">
                                    <img src=""images/D104.png"" style= ""width:200px""alt=""img"">
                                </div>
                            </div>","118","","0","images/D104.png","","","","[""Blobby"",""Stripey""]"
"","","","","","html-slider-response","73","261823","0.0-69.0","1puhqn41nl","NaN","<div style=""width:500px;"">
                                <p style=""font-size:50px; font-weight:bold;""
                                ></p>
                                <div style=""width:240px; margin: auto;"">
                                    <img src=""images/D102.png"" style= ""width:200px""alt=""img"">
                                </div>
                            </div>","120","","0","images/D102.png","","","","[""Blobby"",""Stripey""]"
"","","","","","html-slider-response","74","263529","0.0-70.0","1puhqn41nl","NaN","<div style=""width:500px;"">
                                <p style=""font-size:50px; font-weight:bold;""
                                ></p>
                                <div style=""width:240px; margin: auto;"">
                                    <img src=""images/D94.png"" style= ""width:200px""alt=""img"">
                                </div>
                            </div>","120","","0","images/D94.png","","","","[""Blobby"",""Stripey""]"
"","","","","","html-slider-response","75","264792","0.0-71.0","1puhqn41nl","NaN","<div style=""width:500px;"">
                                <p style=""font-size:50px; font-weight:bold;""
                                ></p>
                                <div style=""width:240px; margin: auto;"">
                                    <img src=""images/D20.png"" style= ""width:200px""alt=""img"">
                                </div>
                            </div>","120","","0","images/D20.png","","","","[""Blobby"",""Stripey""]"
"","","","","","html-slider-response","76","266081","0.0-72.0","1puhqn41nl","NaN","<div style=""width:500px;"">
                                <p style=""font-size:50px; font-weight:bold;""
                                ></p>
                                <div style=""width:240px; margin: auto;"">
                                    <img src=""images/D35.png"" style= ""width:200px""alt=""img"">
                                </div>
                            </div>","120","","0","images/D35.png","","","","[""Blobby"",""Stripey""]"
"","","","","","html-slider-response","77","267991","0.0-73.0","1puhqn41nl","NaN","<div style=""width:500px;"">
                                <p style=""font-size:50px; font-weight:bold;""
                                ></p>
                                <div style=""width:240px; margin: auto;"">
                                    <img src=""images/D29.png"" style= ""width:200px""alt=""img"">
                                </div>
                            </div>","-124","","0","images/D29.png","","","","[""Blobby"",""Stripey""]"
"","","","","","html-slider-response","78","269405","0.0-74.0","1puhqn41nl","NaN","<div style=""width:500px;"">
                                <p style=""font-size:50px; font-weight:bold;""
                                ></p>
                                <div style=""width:240px; margin: auto;"">
                                    <img src=""images/D95.png"" style= ""width:200px""alt=""img"">
                                </div>
                            </div>","105","","0","images/D95.png","","","","[""Blobby"",""Stripey""]"
"","","","","","html-slider-response","79","271009","0.0-75.0","1puhqn41nl","NaN","<div style=""width:500px;"">
                                <p style=""font-size:50px; font-weight:bold;""
                                ></p>
                                <div style=""width:240px; margin: auto;"">
                                    <img src=""images/D111.png"" style= ""width:200px""alt=""img"">
                                </div>
                            </div>","-126","","0","images/D111.png","","","","[""Blobby"",""Stripey""]"
"","","","","","html-button-response","80","272780","0.0-76.0","1puhqn41nl","1267","You have completed the first block of trials out of six. Please click 'Continue' when you are ready proceed.","0","","","","","","",""
"","","","","","html-button-response","81","274141","0.0-77.0","1puhqn41nl","1358","In the following trials, you will be asked to rate textures on the scale <b>Coarse</b> versus <b>Fine</b>. Please click 'Continue' when you are ready proceed.","0","","","","","","",""
"","","","","","html-slider-response","82","275754","0.0-78.0","1puhqn41nl","NaN","<div style=""width:500px;"">
                                <p style=""font-size:50px; font-weight:bold;""
                                ></p>
                                <div style=""width:240px; margin: auto;"">
                                    <img src=""images/D17.png"" style= ""width:200px""alt=""img"">
                                </div>
                            </div>","-129","","0","images/D17.png","","","","[""Coarse"",""Fine""]"
"","","","","","html-slider-response","83","277713","0.0-79.0","1puhqn41nl","NaN","<div style=""width:500px;"">
                                <p style=""font-size:50px; font-weight:bold;""
                                ></p>
                                <div style=""width:240px; margin: auto;"">
                                    <img src=""images/D11.png"" style= ""width:200px""alt=""img"">
                                </div>
                            </div>","-168","","0","images/D11.png","","","","[""Coarse"",""Fine""]"
"","","","","","html-slider-response","84","280525","0.0-80.0","1puhqn41nl","NaN","<div style=""width:500px;"">
                                <p style=""font-size:50px; font-weight:bold;""
                                ></p>
                                <div style=""width:240px; margin: auto;"">
                                    <img src=""images/D4.png"" style= ""width:200px""alt=""img"">
                                </div>
                            </div>","-170","","0","images/D4.png","","","","[""Coarse"",""Fine""]"
"","","","","","html-slider-response","85","282550","0.0-81.0","1puhqn41nl","NaN","<div style=""width:500px;"">
                                <p style=""font-size:50px; font-weight:bold;""
                                ></p>
                                <div style=""width:240px; margin: auto;"">
                                    <img src=""images/D21.png"" style= ""width:200px""alt=""img"">
                                </div>
                            </div>","172","","0","images/D21.png","","","","[""Coarse"",""Fine""]"
"","","","","","html-slider-response","86","284576","0.0-82.0","1puhqn41nl","NaN","<div style=""width:500px;"">
                                <p style=""font-size:50px; font-weight:bold;""
                                ></p>
                                <div style=""width:240px; margin: auto;"">
                                    <img src=""images/D83.png"" style= ""width:200px""alt=""img"">
                                </div>
                            </div>","-128","","0","images/D83.png","","","","[""Coarse"",""Fine""]"
"","","","","","html-slider-response","87","286207","0.0-83.0","1puhqn41nl","NaN","<div style=""width:500px;"">
                                <p style=""font-size:50px; font-weight:bold;""
                                ></p>
                                <div style=""width:240px; margin: auto;"">
                                    <img src=""images/D56.png"" style= ""width:200px""alt=""img"">
                                </div>
                            </div>","-78","","0","images/D56.png","","","","[""Coarse"",""Fine""]"
"","","","","","html-slider-response","88","288088","0.0-84.0","1puhqn41nl","NaN","<div style=""width:500px;"">
                                <p style=""font-size:50px; font-weight:bold;""
                                ></p>
                                <div style=""width:240px; margin: auto;"">
                                    <img src=""images/D6.png"" style= ""width:200px""alt=""img"">
                                </div>
                            </div>","79","","0","images/D6.png","","","","[""Coarse"",""Fine""]"
"","","","","","html-slider-response","89","289792","0.0-85.0","1puhqn41nl","NaN","<div style=""width:500px;"">
                                <p style=""font-size:50px; font-weight:bold;""
                                ></p>
                                <div style=""width:240px; margin: auto;"">
                                    <img src=""images/D9.png"" style= ""width:200px""alt=""img"">
                                </div>
                            </div>","88","","0","images/D9.png","","","","[""Coarse"",""Fine""]"
"","","","","","html-slider-response","90","291412","0.0-86.0","1puhqn41nl","NaN","<div style=""width:500px;"">
                                <p style=""font-size:50px; font-weight:bold;""
                                ></p>
                                <div style=""width:240px; margin: auto;"">
                                    <img src=""images/D87.png"" style= ""width:200px""alt=""img"">
                                </div>
                            </div>","58","","0","images/D87.png","","","","[""Coarse"",""Fine""]"
"","","","","","html-slider-response","91","292907","0.0-87.0","1puhqn41nl","NaN","<div style=""width:500px;"">
                                <p style=""font-size:50px; font-weight:bold;""
                                ></p>
                                <div style=""width:240px; margin: auto;"">
                                    <img src=""images/D16.png"" style= ""width:200px""alt=""img"">
                                </div>
                            </div>","53","","0","images/D16.png","","","","[""Coarse"",""Fine""]"
"","","","","","html-slider-response","92","295261","0.0-88.0","1puhqn41nl","NaN","<div style=""width:500px;"">
                                <p style=""font-size:50px; font-weight:bold;""
                                ></p>
                                <div style=""width:240px; margin: auto;"">
                                    <img src=""images/D1.png"" style= ""width:200px""alt=""img"">
                                </div>
                            </div>","-158","","0","images/D1.png","","","","[""Coarse"",""Fine""]"
"","","","","","html-slider-response","93","298151","0.0-89.0","1puhqn41nl","NaN","<div style=""width:500px;"">
                                <p style=""font-size:50px; font-weight:bold;""
                                ></p>
                                <div style=""width:240px; margin: auto;"">
                                    <img src=""images/D46.png"" style= ""width:200px""alt=""img"">
                                </div>
                            </div>","185","","0","images/D46.png","","","","[""Coarse"",""Fine""]"
"","","","","","html-slider-response","94","300403","0.0-90.0","1puhqn41nl","NaN","<div style=""width:500px;"">
                                <p style=""font-size:50px; font-weight:bold;""
                                ></p>
                                <div style=""width:240px; margin: auto;"">
                                    <img src=""images/D3.png"" style= ""width:200px""alt=""img"">
                                </div>
                            </div>","172","","0","images/D3.png","","","","[""Coarse"",""Fine""]"
"","","","","","html-slider-response","95","301597","0.0-91.0","1puhqn41nl","NaN","<div style=""width:500px;"">
                                <p style=""font-size:50px; font-weight:bold;""
                                ></p>
                                <div style=""width:240px; margin: auto;"">
                                    <img src=""images/D55.png"" style= ""width:200px""alt=""img"">
                                </div>
                            </div>","172","","0","images/D55.png","","","","[""Coarse"",""Fine""]"
"","","","","","html-slider-response","96","304783","0.0-92.0","1puhqn41nl","NaN","<div style=""width:500px;"">
                                <p style=""font-size:50px; font-weight:bold;""
                                ></p>
                                <div style=""width:240px; margin: auto;"">
                                    <img src=""images/D19.png"" style= ""width:200px""alt=""img"">
                                </div>
                            </div>","-165","","0","images/D19.png","","","","[""Coarse"",""Fine""]"
"","","","","","html-slider-response","97","307601","0.0-93.0","1puhqn41nl","NaN","<div style=""width:500px;"">
                                <p style=""font-size:50px; font-weight:bold;""
                                ></p>
                                <div style=""width:240px; margin: auto;"">
                                    <img src=""images/D76.png"" style= ""width:200px""alt=""img"">
                                </div>
                            </div>","-146","","0","images/D76.png","","","","[""Coarse"",""Fine""]"
"","","","","","html-slider-response","98","309201","0.0-94.0","1puhqn41nl","NaN","<div style=""width:500px;"">
                                <p style=""font-size:50px; font-weight:bold;""
                                ></p>
                                <div style=""width:240px; margin: auto;"">
                                    <img src=""images/D37.png"" style= ""width:200px""alt=""img"">
                                </div>
                            </div>","-142","","0","images/D37.png","","","","[""Coarse"",""Fine""]"
"","","","","","html-slider-response","99","310552","0.0-95.0","1puhqn41nl","NaN","<div style=""width:500px;"">
                                <p style=""font-size:50px; font-weight:bold;""
                                ></p>
                                <div style=""width:240px; margin: auto;"">
                                    <img src=""images/D66.png"" style= ""width:200px""alt=""img"">
                                </div>
                            </div>","-142","","0","images/D66.png","","","","[""Coarse"",""Fine""]"
"","","","","","html-slider-response","100","311779","0.0-96.0","1puhqn41nl","NaN","<div style=""width:500px;"">
                                <p style=""font-size:50px; font-weight:bold;""
                                ></p>
                                <div style=""width:240px; margin: auto;"">
                                    <img src=""images/D8.png"" style= ""width:200px""alt=""img"">
                                </div>
                            </div>","-107","","0","images/D8.png","","","","[""Coarse"",""Fine""]"
"","","","","","html-slider-response","101","313538","0.0-97.0","1puhqn41nl","NaN","<div style=""width:500px;"">
                                <p style=""font-size:50px; font-weight:bold;""
                                ></p>
                                <div style=""width:240px; margin: auto;"">
                                    <img src=""images/D77.png"" style= ""width:200px""alt=""img"">
                                </div>
                            </div>","103","","0","images/D77.png","","","","[""Coarse"",""Fine""]"
"","","","","","html-slider-response","102","314953","0.0-98.0","1puhqn41nl","NaN","<div style=""width:500px;"">
                                <p style=""font-size:50px; font-weight:bold;""
                                ></p>
                                <div style=""width:240px; margin: auto;"">
                                    <img src=""images/D79.png"" style= ""width:200px""alt=""img"">
                                </div>
                            </div>","101","","0","images/D79.png","","","","[""Coarse"",""Fine""]"
"","","","","","html-slider-response","103","318724","0.0-99.0","1puhqn41nl","NaN","<div style=""width:500px;"">
                                <p style=""font-size:50px; font-weight:bold;""
                                ></p>
                                <div style=""width:240px; margin: auto;"">
                                    <img src=""images/D75.png"" style= ""width:200px""alt=""img"">
                                </div>
                            </div>","-114","","0","images/D75.png","","","","[""Coarse"",""Fine""]"
"","","","","","html-slider-response","104","329282","0.0-100.0","1puhqn41nl","NaN","<div style=""width:500px;"">
                                <p style=""font-size:50px; font-weight:bold;""
                                ></p>
                                <div style=""width:240px; margin: auto;"">
                                    <img src=""images/D106.png"" style= ""width:200px""alt=""img"">
                                </div>
                            </div>","93","","0","images/D106.png","","","","[""Coarse"",""Fine""]"
"","","","","","html-slider-response","105","330611","0.0-101.0","1puhqn41nl","NaN","<div style=""width:500px;"">
                                <p style=""font-size:50px; font-weight:bold;""
                                ></p>
                                <div style=""width:240px; margin: auto;"">
                                    <img src=""images/D80.png"" style= ""width:200px""alt=""img"">
                                </div>
                            </div>","66","","0","images/D80.png","","","","[""Coarse"",""Fine""]"
"","","","","","html-slider-response","106","331949","0.0-102.0","1puhqn41nl","NaN","<div style=""width:500px;"">
                                <p style=""font-size:50px; font-weight:bold;""
                                ></p>
                                <div style=""width:240px; margin: auto;"">
                                    <img src=""images/D24.png"" style= ""width:200px""alt=""img"">
                                </div>
                            </div>","66","","0","images/D24.png","","","","[""Coarse"",""Fine""]"
"","","","","","html-slider-response","107","334132","0.0-103.0","1puhqn41nl","NaN","<div style=""width:500px;"">
                                <p style=""font-size:50px; font-weight:bold;""
                                ></p>
                                <div style=""width:240px; margin: auto;"">
                                    <img src=""images/D103.png"" style= ""width:200px""alt=""img"">
                                </div>
                            </div>","-94","","0","images/D103.png","","","","[""Coarse"",""Fine""]"
"","","","","","html-slider-response","108","335405","0.0-104.0","1puhqn41nl","NaN","<div style=""width:500px;"">
                                <p style=""font-size:50px; font-weight:bold;""
                                ></p>
                                <div style=""width:240px; margin: auto;"">
                                    <img src=""images/D14.png"" style= ""width:200px""alt=""img"">
                                </div>
                            </div>","44","","0","images/D14.png","","","","[""Coarse"",""Fine""]"
"","","","","","html-slider-response","109","337022","0.0-105.0","1puhqn41nl","NaN","<div style=""width:500px;"">
                                <p style=""font-size:50px; font-weight:bold;""
                                ></p>
                                <div style=""width:240px; margin: auto;"">
                                    <img src=""images/D51.png"" style= ""width:200px""alt=""img"">
                                </div>
                            </div>","-78","","0","images/D51.png","","","","[""Coarse"",""Fine""]"
"","","","","","html-slider-response","110","338404","0.0-106.0","1puhqn41nl","NaN","<div style=""width:500px;"">
                                <p style=""font-size:50px; font-weight:bold;""
                                ></p>
                                <div style=""width:240px; margin: auto;"">
                                    <img src=""images/D74.png"" style= ""width:200px""alt=""img"">
                                </div>
                            </div>","-93","","0","images/D74.png","","","","[""Coarse"",""Fine""]"
"","","","","","html-slider-response","111","340263","0.0-107.0","1puhqn41nl","NaN","<div style=""width:500px;"">
                                <p style=""font-size:50px; font-weight:bold;""
                                ></p>
                                <div style=""width:240px; margin: auto;"">
                                    <img src=""images/D53.png"" style= ""width:200px""alt=""img"">
                                </div>
                            </div>","68","","0","images/D53.png","","","","[""Coarse"",""Fine""]"
"","","","","","html-slider-response","112","343732","0.0-108.0","1puhqn41nl","NaN","<div style=""width:500px;"">
                                <p style=""font-size:50px; font-weight:bold;""
                                ></p>
                                <div style=""width:240px; margin: auto;"">
                                    <img src=""images/D92.png"" style= ""width:200px""alt=""img"">
                                </div>
                            </div>","-96","","0","images/D92.png","","","","[""Coarse"",""Fine""]"
"","","","","","html-slider-response","113","345240","0.0-109.0","1puhqn41nl","NaN","<div style=""width:500px;"">
                                <p style=""font-size:50px; font-weight:bold;""
                                ></p>
                                <div style=""width:240px; margin: auto;"">
                                    <img src=""images/D85.png"" style= ""width:200px""alt=""img"">
                                </div>
                            </div>","71","","0","images/D85.png","","","","[""Coarse"",""Fine""]"
"","","","","","html-slider-response","114","397666","0.0-110.0","1puhqn41nl","NaN","<div style=""width:500px;"">
                                <p style=""font-size:50px; font-weight:bold;""
                                ></p>
                                <div style=""width:240px; margin: auto;"">
                                    <img src=""images/D52.png"" style= ""width:200px""alt=""img"">
                                </div>
                            </div>","71","","0","images/D52.png","","","","[""Coarse"",""Fine""]"
"","","","","","html-slider-response","115","399331","0.0-111.0","1puhqn41nl","NaN","<div style=""width:500px;"">
                                <p style=""font-size:50px; font-weight:bold;""
                                ></p>
                                <div style=""width:240px; margin: auto;"">
                                    <img src=""images/D64.png"" style= ""width:200px""alt=""img"">
                                </div>
                            </div>","-88","","0","images/D64.png","","","","[""Coarse"",""Fine""]"
"","","","","","html-slider-response","116","400684","0.0-112.0","1puhqn41nl","NaN","<div style=""width:500px;"">
                                <p style=""font-size:50px; font-weight:bold;""
                                ></p>
                                <div style=""width:240px; margin: auto;"">
                                    <img src=""images/D68.png"" style= ""width:200px""alt=""img"">
                                </div>
                            </div>","-107","","0","images/D68.png","","","","[""Coarse"",""Fine""]"
"","","","","","html-slider-response","117","402037","0.0-113.0","1puhqn41nl","NaN","<div style=""width:500px;"">
                                <p style=""font-size:50px; font-weight:bold;""
                                ></p>
                                <div style=""width:240px; margin: auto;"">
                                    <img src=""images/D84.png"" style= ""width:200px""alt=""img"">
                                </div>
                            </div>","103","","0","images/D84.png","","","","[""Coarse"",""Fine""]"
"","","","","","html-slider-response","118","403499","0.0-114.0","1puhqn41nl","NaN","<div style=""width:500px;"">
                                <p style=""font-size:50px; font-weight:bold;""
                                ></p>
                                <div style=""width:240px; margin: auto;"">
                                    <img src=""images/D49.png"" style= ""width:200px""alt=""img"">
                                </div>
                            </div>","103","","0","images/D49.png","","","","[""Coarse"",""Fine""]"
"","","","","","html-slider-response","119","405606","0.0-115.0","1puhqn41nl","NaN","<div style=""width:500px;"">
                                <p style=""font-size:50px; font-weight:bold;""
                                ></p>
                                <div style=""width:240px; margin: auto;"">
                                    <img src=""images/D81.png"" style= ""width:200px""alt=""img"">
                                </div>
                            </div>","-22","","0","images/D81.png","","","","[""Coarse"",""Fine""]"
"","","","","","html-slider-response","120","407098","0.0-116.0","1puhqn41nl","NaN","<div style=""width:500px;"">
                                <p style=""font-size:50px; font-weight:bold;""
                                ></p>
                                <div style=""width:240px; margin: auto;"">
                                    <img src=""images/D101.png"" style= ""width:200px""alt=""img"">
                                </div>
                            </div>","-22","","0","images/D101.png","","","","[""Coarse"",""Fine""]"
"","","","","","html-slider-response","121","408667","0.0-117.0","1puhqn41nl","NaN","<div style=""width:500px;"">
                                <p style=""font-size:50px; font-weight:bold;""
                                ></p>
                                <div style=""width:240px; margin: auto;"">
                                    <img src=""images/D25.png"" style= ""width:200px""alt=""img"">
                                </div>
                            </div>","-65","","0","images/D25.png","","","","[""Coarse"",""Fine""]"
"","","","","","html-slider-response","122","411048","0.0-118.0","1puhqn41nl","NaN","<div style=""width:500px;"">
                                <p style=""font-size:50px; font-weight:bold;""
                                ></p>
                                <div style=""width:240px; margin: auto;"">
                                    <img src=""images/D47.png"" style= ""width:200px""alt=""img"">
                                </div>
                            </div>","117","","0","images/D47.png","","","","[""Coarse"",""Fine""]"
"","","","","","html-slider-response","123","412831","0.0-119.0","1puhqn41nl","NaN","<div style=""width:500px;"">
                                <p style=""font-size:50px; font-weight:bold;""
                                ></p>
                                <div style=""width:240px; margin: auto;"">
                                    <img src=""images/D78.png"" style= ""width:200px""alt=""img"">
                                </div>
                            </div>","125","","0","images/D78.png","","","","[""Coarse"",""Fine""]"
"","","","","","html-slider-response","124","414151","0.0-120.0","1puhqn41nl","NaN","<div style=""width:500px;"">
                                <p style=""font-size:50px; font-weight:bold;""
                                ></p>
                                <div style=""width:240px; margin: auto;"">
                                    <img src=""images/D57.png"" style= ""width:200px""alt=""img"">
                                </div>
                            </div>","125","","0","images/D57.png","","","","[""Coarse"",""Fine""]"
"","","","","","html-slider-response","125","415430","0.0-121.0","1puhqn41nl","NaN","<div style=""width:500px;"">
                                <p style=""font-size:50px; font-weight:bold;""
                                ></p>
                                <div style=""width:240px; margin: auto;"">
                                    <img src=""images/D105.png"" style= ""width:200px""alt=""img"">
                                </div>
                            </div>","118","","0","images/D105.png","","","","[""Coarse"",""Fine""]"
"","","","","","html-slider-response","126","416609","0.0-122.0","1puhqn41nl","NaN","<div style=""width:500px;"">
                                <p style=""font-size:50px; font-weight:bold;""
                                ></p>
                                <div style=""width:240px; margin: auto;"">
                                    <img src=""images/D36.png"" style= ""width:200px""alt=""img"">
                                </div>
                            </div>","118","","0","images/D36.png","","","","[""Coarse"",""Fine""]"
"","","","","","html-slider-response","127","418290","0.0-123.0","1puhqn41nl","NaN","<div style=""width:500px;"">
                                <p style=""font-size:50px; font-weight:bold;""
                                ></p>
                                <div style=""width:240px; margin: auto;"">
                                    <img src=""images/D18.png"" style= ""width:200px""alt=""img"">
                                </div>
                            </div>","-111","","0","images/D18.png","","","","[""Coarse"",""Fine""]"
"","","","","","html-slider-response","128","419597","0.0-124.0","1puhqn41nl","NaN","<div style=""width:500px;"">
                                <p style=""font-size:50px; font-weight:bold;""
                                ></p>
                                <div style=""width:240px; margin: auto;"">
                                    <img src=""images/D82.png"" style= ""width:200px""alt=""img"">
                                </div>
                            </div>","91","","0","images/D82.png","","","","[""Coarse"",""Fine""]"
"","","","","","html-slider-response","129","420942","0.0-125.0","1puhqn41nl","NaN","<div style=""width:500px;"">
                                <p style=""font-size:50px; font-weight:bold;""
                                ></p>
                                <div style=""width:240px; margin: auto;"">
                                    <img src=""images/D48.png"" style= ""width:200px""alt=""img"">
                                </div>
                            </div>","-83","","0","images/D48.png","","","","[""Coarse"",""Fine""]"
"","","","","","html-slider-response","130","422496","0.0-126.0","1puhqn41nl","NaN","<div style=""width:500px;"">
                                <p style=""font-size:50px; font-weight:bold;""
                                ></p>
                                <div style=""width:240px; margin: auto;"">
                                    <img src=""images/D32.png"" style= ""width:200px""alt=""img"">
                                </div>
                            </div>","-143","","0","images/D32.png","","","","[""Coarse"",""Fine""]"
"","","","","","html-slider-response","131","424144","0.0-127.0","1puhqn41nl","NaN","<div style=""width:500px;"">
                                <p style=""font-size:50px; font-weight:bold;""
                                ></p>
                                <div style=""width:240px; margin: auto;"">
                                    <img src=""images/D22.png"" style= ""width:200px""alt=""img"">
                                </div>
                            </div>","-177","","0","images/D22.png","","","","[""Coarse"",""Fine""]"
"","","","","","html-slider-response","132","425545","0.0-128.0","1puhqn41nl","NaN","<div style=""width:500px;"">
                                <p style=""font-size:50px; font-weight:bold;""
                                ></p>
                                <div style=""width:240px; margin: auto;"">
                                    <img src=""images/D65.png"" style= ""width:200px""alt=""img"">
                                </div>
                            </div>","-177","","0","images/D65.png","","","","[""Coarse"",""Fine""]"
"","","","","","html-slider-response","133","426674","0.0-129.0","1puhqn41nl","NaN","<div style=""width:500px;"">
                                <p style=""font-size:50px; font-weight:bold;""
                                ></p>
                                <div style=""width:240px; margin: auto;"">
                                    <img src=""images/D26.png"" style= ""width:200px""alt=""img"">
                                </div>
                            </div>","-177","","0","images/D26.png","","","","[""Coarse"",""Fine""]"
"","","","","","html-slider-response","134","428728","0.0-130.0","1puhqn41nl","NaN","<div style=""width:500px;"">
                                <p style=""font-size:50px; font-weight:bold;""
                                ></p>
                                <div style=""width:240px; margin: auto;"">
                                    <img src=""images/D34.png"" style= ""width:200px""alt=""img"">
                                </div>
                            </div>","-132","","0","images/D34.png","","","","[""Coarse"",""Fine""]"
"","","","","","html-slider-response","135","429996","0.0-131.0","1puhqn41nl","NaN","<div style=""width:500px;"">
                                <p style=""font-size:50px; font-weight:bold;""
                                ></p>
                                <div style=""width:240px; margin: auto;"">
                                    <img src=""images/D96.png"" style= ""width:200px""alt=""img"">
                                </div>
                            </div>","-110","","0","images/D96.png","","","","[""Coarse"",""Fine""]"
"","","","","","html-slider-response","136","431146","0.0-132.0","1puhqn41nl","NaN","<div style=""width:500px;"">
                                <p style=""font-size:50px; font-weight:bold;""
                                ></p>
                                <div style=""width:240px; margin: auto;"">
                                    <img src=""images/D104.png"" style= ""width:200px""alt=""img"">
                                </div>
                            </div>","-110","","0","images/D104.png","","","","[""Coarse"",""Fine""]"
"","","","","","html-slider-response","137","432416","0.0-133.0","1puhqn41nl","NaN","<div style=""width:500px;"">
                                <p style=""font-size:50px; font-weight:bold;""
                                ></p>
                                <div style=""width:240px; margin: auto;"">
                                    <img src=""images/D102.png"" style= ""width:200px""alt=""img"">
                                </div>
                            </div>","-110","","0","images/D102.png","","","","[""Coarse"",""Fine""]"
"","","","","","html-slider-response","138","433626","0.0-134.0","1puhqn41nl","NaN","<div style=""width:500px;"">
                                <p style=""font-size:50px; font-weight:bold;""
                                ></p>
                                <div style=""width:240px; margin: auto;"">
                                    <img src=""images/D94.png"" style= ""width:200px""alt=""img"">
                                </div>
                            </div>","-110","","0","images/D94.png","","","","[""Coarse"",""Fine""]"
"","","","","","html-slider-response","139","435009","0.0-135.0","1puhqn41nl","NaN","<div style=""width:500px;"">
                                <p style=""font-size:50px; font-weight:bold;""
                                ></p>
                                <div style=""width:240px; margin: auto;"">
                                    <img src=""images/D20.png"" style= ""width:200px""alt=""img"">
                                </div>
                            </div>","-110","","0","images/D20.png","","","","[""Coarse"",""Fine""]"
"","","","","","html-slider-response","140","436423","0.0-136.0","1puhqn41nl","NaN","<div style=""width:500px;"">
                                <p style=""font-size:50px; font-weight:bold;""
                                ></p>
                                <div style=""width:240px; margin: auto;"">
                                    <img src=""images/D35.png"" style= ""width:200px""alt=""img"">
                                </div>
                            </div>","-110","","0","images/D35.png","","","","[""Coarse"",""Fine""]"
"","","","","","html-slider-response","141","438767","0.0-137.0","1puhqn41nl","NaN","<div style=""width:500px;"">
                                <p style=""font-size:50px; font-weight:bold;""
                                ></p>
                                <div style=""width:240px; margin: auto;"">
                                    <img src=""images/D29.png"" style= ""width:200px""alt=""img"">
                                </div>
                            </div>","31","","0","images/D29.png","","","","[""Coarse"",""Fine""]"
"","","","","","html-slider-response","142","440496","0.0-138.0","1puhqn41nl","NaN","<div style=""width:500px;"">
                                <p style=""font-size:50px; font-weight:bold;""
                                ></p>
                                <div style=""width:240px; margin: auto;"">
                                    <img src=""images/D95.png"" style= ""width:200px""alt=""img"">
                                </div>
                            </div>","-77","","0","images/D95.png","","","","[""Coarse"",""Fine""]"
"","","","","","html-slider-response","143","441653","0.0-139.0","1puhqn41nl","NaN","<div style=""width:500px;"">
                                <p style=""font-size:50px; font-weight:bold;""
                                ></p>
                                <div style=""width:240px; margin: auto;"">
                                    <img src=""images/D111.png"" style= ""width:200px""alt=""img"">
                                </div>
                            </div>","-77","","0","images/D111.png","","","","[""Coarse"",""Fine""]"
"","","","","","html-button-response","144","444484","0.0-140.0","1puhqn41nl","2326","You have completed the second block of trials out of six. Please click 'Continue' when you are ready proceed.","0","","","","","","",""
"","","","","","html-button-response","145","445648","0.0-141.0","1puhqn41nl","1161","In the following trials, you will be asked to rate textures on the scale <b>Hard</b> versus <b>Soft</b>. Please click 'Continue' when you are ready proceed.","0","","","","","","",""
"","","","","","html-slider-response","146","447054","0.0-142.0","1puhqn41nl","NaN","<div style=""width:500px;"">
                                <p style=""font-size:50px; font-weight:bold;""
                                ></p>
                                <div style=""width:240px; margin: auto;"">
                                    <img src=""images/D52.png"" style= ""width:200px""alt=""img"">
                                </div>
                            </div>","-158","","0","images/D52.png","","","","[""Hard"",""Soft""]"
"","","","","","html-slider-response","147","448296","0.0-143.0","1puhqn41nl","NaN","<div style=""width:500px;"">
                                <p style=""font-size:50px; font-weight:bold;""
                                ></p>
                                <div style=""width:240px; margin: auto;"">
                                    <img src=""images/D34.png"" style= ""width:200px""alt=""img"">
                                </div>
                            </div>","-158","","0","images/D34.png","","","","[""Hard"",""Soft""]"
"","","","","","html-slider-response","148","450323","0.0-144.0","1puhqn41nl","NaN","<div style=""width:500px;"">
                                <p style=""font-size:50px; font-weight:bold;""
                                ></p>
                                <div style=""width:240px; margin: auto;"">
                                    <img src=""images/D8.png"" style= ""width:200px""alt=""img"">
                                </div>
                            </div>","153","","0","images/D8.png","","","","[""Hard"",""Soft""]"
"","","","","","html-slider-response","149","451468","0.0-145.0","1puhqn41nl","NaN","<div style=""width:500px;"">
                                <p style=""font-size:50px; font-weight:bold;""
                                ></p>
                                <div style=""width:240px; margin: auto;"">
                                    <img src=""images/D84.png"" style= ""width:200px""alt=""img"">
                                </div>
                            </div>","-120","","0","images/D84.png","","","","[""Hard"",""Soft""]"
"","","","","","html-slider-response","150","453025","0.0-146.0","1puhqn41nl","NaN","<div style=""width:500px;"">
                                <p style=""font-size:50px; font-weight:bold;""
                                ></p>
                                <div style=""width:240px; margin: auto;"">
                                    <img src=""images/D83.png"" style= ""width:200px""alt=""img"">
                                </div>
                            </div>","83","","0","images/D83.png","","","","[""Hard"",""Soft""]"
"","","","","","html-slider-response","151","454223","0.0-147.0","1puhqn41nl","NaN","<div style=""width:500px;"">
                                <p style=""font-size:50px; font-weight:bold;""
                                ></p>
                                <div style=""width:240px; margin: auto;"">
                                    <img src=""images/D1.png"" style= ""width:200px""alt=""img"">
                                </div>
                            </div>","-88","","0","images/D1.png","","","","[""Hard"",""Soft""]"
"","","","","","html-slider-response","152","455256","0.0-148.0","1puhqn41nl","NaN","<div style=""width:500px;"">
                                <p style=""font-size:50px; font-weight:bold;""
                                ></p>
                                <div style=""width:240px; margin: auto;"">
                                    <img src=""images/D94.png"" style= ""width:200px""alt=""img"">
                                </div>
                            </div>","-88","","0","images/D94.png","","","","[""Hard"",""Soft""]"
"","","","","","html-slider-response","153","456523","0.0-149.0","1puhqn41nl","NaN","<div style=""width:500px;"">
                                <p style=""font-size:50px; font-weight:bold;""
                                ></p>
                                <div style=""width:240px; margin: auto;"">
                                    <img src=""images/D66.png"" style= ""width:200px""alt=""img"">
                                </div>
                            </div>","-88","","0","images/D66.png","","","","[""Hard"",""Soft""]"
"","","","","","html-slider-response","154","458518","0.0-150.0","1puhqn41nl","NaN","<div style=""width:500px;"">
                                <p style=""font-size:50px; font-weight:bold;""
                                ></p>
                                <div style=""width:240px; margin: auto;"">
                                    <img src=""images/D22.png"" style= ""width:200px""alt=""img"">
                                </div>
                            </div>","107","","0","images/D22.png","","","","[""Hard"",""Soft""]"
"","","","","","html-slider-response","155","461605","0.0-151.0","1puhqn41nl","NaN","<div style=""width:500px;"">
                                <p style=""font-size:50px; font-weight:bold;""
                                ></p>
                                <div style=""width:240px; margin: auto;"">
                                    <img src=""images/D80.png"" style= ""width:200px""alt=""img"">
                                </div>
                            </div>","-78","","0","images/D80.png","","","","[""Hard"",""Soft""]"
"","","","","","html-slider-response","156","462878","0.0-152.0","1puhqn41nl","NaN","<div style=""width:500px;"">
                                <p style=""font-size:50px; font-weight:bold;""
                                ></p>
                                <div style=""width:240px; margin: auto;"">
                                    <img src=""images/D76.png"" style= ""width:200px""alt=""img"">
                                </div>
                            </div>","-78","","0","images/D76.png","","","","[""Hard"",""Soft""]"
"","","","","","html-slider-response","157","465198","0.0-153.0","1puhqn41nl","NaN","<div style=""width:500px;"">
                                <p style=""font-size:50px; font-weight:bold;""
                                ></p>
                                <div style=""width:240px; margin: auto;"">
                                    <img src=""images/D49.png"" style= ""width:200px""alt=""img"">
                                </div>
                            </div>","54","","0","images/D49.png","","","","[""Hard"",""Soft""]"
"","","","","","html-slider-response","158","466171","0.0-154.0","1puhqn41nl","NaN","<div style=""width:500px;"">
                                <p style=""font-size:50px; font-weight:bold;""
                                ></p>
                                <div style=""width:240px; margin: auto;"">
                                    <img src=""images/D55.png"" style= ""width:200px""alt=""img"">
                                </div>
                            </div>","-70","","0","images/D55.png","","","","[""Hard"",""Soft""]"
"","","","","","html-slider-response","159","467099","0.0-155.0","1puhqn41nl","NaN","<div style=""width:500px;"">
                                <p style=""font-size:50px; font-weight:bold;""
                                ></p>
                                <div style=""width:240px; margin: auto;"">
                                    <img src=""images/D77.png"" style= ""width:200px""alt=""img"">
                                </div>
                            </div>","-76","","0","images/D77.png","","","","[""Hard"",""Soft""]"
"","","","","","html-slider-response","160","468005","0.0-156.0","1puhqn41nl","NaN","<div style=""width:500px;"">
                                <p style=""font-size:50px; font-weight:bold;""
                                ></p>
                                <div style=""width:240px; margin: auto;"">
                                    <img src=""images/D101.png"" style= ""width:200px""alt=""img"">
                                </div>
                            </div>","51","","0","images/D101.png","","","","[""Hard"",""Soft""]"
"","","","","","html-slider-response","161","469459","0.0-157.0","1puhqn41nl","NaN","<div style=""width:500px;"">
                                <p style=""font-size:50px; font-weight:bold;""
                                ></p>
                                <div style=""width:240px; margin: auto;"">
                                    <img src=""images/D37.png"" style= ""width:200px""alt=""img"">
                                </div>
                            </div>","-72","","0","images/D37.png","","","","[""Hard"",""Soft""]"
"","","","","","html-slider-response","162","470448","0.0-158.0","1puhqn41nl","NaN","<div style=""width:500px;"">
                                <p style=""font-size:50px; font-weight:bold;""
                                ></p>
                                <div style=""width:240px; margin: auto;"">
                                    <img src=""images/D14.png"" style= ""width:200px""alt=""img"">
                                </div>
                            </div>","-72","","0","images/D14.png","","","","[""Hard"",""Soft""]"
"","","","","","html-slider-response","163","471617","0.0-159.0","1puhqn41nl","NaN","<div style=""width:500px;"">
                                <p style=""font-size:50px; font-weight:bold;""
                                ></p>
                                <div style=""width:240px; margin: auto;"">
                                    <img src=""images/D64.png"" style= ""width:200px""alt=""img"">
                                </div>
                            </div>","-72","","0","images/D64.png","","","","[""Hard"",""Soft""]"
"","","","","","html-slider-response","164","472820","0.0-160.0","1puhqn41nl","NaN","<div style=""width:500px;"">
                                <p style=""font-size:50px; font-weight:bold;""
                                ></p>
                                <div style=""width:240px; margin: auto;"">
                                    <img src=""images/D81.png"" style= ""width:200px""alt=""img"">
                                </div>
                            </div>","-72","","0","images/D81.png","","","","[""Hard"",""Soft""]"
"","","","","","html-slider-response","165","474660","0.0-161.0","1puhqn41nl","NaN","<div style=""width:500px;"">
                                <p style=""font-size:50px; font-weight:bold;""
                                ></p>
                                <div style=""width:240px; margin: auto;"">
                                    <img src=""images/D6.png"" style= ""width:200px""alt=""img"">
                                </div>
                            </div>","-46","","0","images/D6.png","","","","[""Hard"",""Soft""]"
"","","","","","html-slider-response","166","476184","0.0-162.0","1puhqn41nl","NaN","<div style=""width:500px;"">
                                <p style=""font-size:50px; font-weight:bold;""
                                ></p>
                                <div style=""width:240px; margin: auto;"">
                                    <img src=""images/D82.png"" style= ""width:200px""alt=""img"">
                                </div>
                            </div>","-147","","0","images/D82.png","","","","[""Hard"",""Soft""]"
"","","","","","html-slider-response","167","477629","0.0-163.0","1puhqn41nl","NaN","<div style=""width:500px;"">
                                <p style=""font-size:50px; font-weight:bold;""
                                ></p>
                                <div style=""width:240px; margin: auto;"">
                                    <img src=""images/D105.png"" style= ""width:200px""alt=""img"">
                                </div>
                            </div>","-61","","0","images/D105.png","","","","[""Hard"",""Soft""]"
"","","","","","html-slider-response","168","479371","0.0-164.0","1puhqn41nl","NaN","<div style=""width:500px;"">
                                <p style=""font-size:50px; font-weight:bold;""
                                ></p>
                                <div style=""width:240px; margin: auto;"">
                                    <img src=""images/D32.png"" style= ""width:200px""alt=""img"">
                                </div>
                            </div>","37","","0","images/D32.png","","","","[""Hard"",""Soft""]"
"","","","","","html-slider-response","169","481086","0.0-165.0","1puhqn41nl","NaN","<div style=""width:500px;"">
                                <p style=""font-size:50px; font-weight:bold;""
                                ></p>
                                <div style=""width:240px; margin: auto;"">
                                    <img src=""images/D92.png"" style= ""width:200px""alt=""img"">
                                </div>
                            </div>","38","","0","images/D92.png","","","","[""Hard"",""Soft""]"
"","","","","","html-slider-response","170","482449","0.0-166.0","1puhqn41nl","NaN","<div style=""width:500px;"">
                                <p style=""font-size:50px; font-weight:bold;""
                                ></p>
                                <div style=""width:240px; margin: auto;"">
                                    <img src=""images/D47.png"" style= ""width:200px""alt=""img"">
                                </div>
                            </div>","38","","0","images/D47.png","","","","[""Hard"",""Soft""]"
"","","","","","html-slider-response","171","483852","0.0-167.0","1puhqn41nl","NaN","<div style=""width:500px;"">
                                <p style=""font-size:50px; font-weight:bold;""
                                ></p>
                                <div style=""width:240px; margin: auto;"">
                                    <img src=""images/D111.png"" style= ""width:200px""alt=""img"">
                                </div>
                            </div>","38","","0","images/D111.png","","","","[""Hard"",""Soft""]"
"","","","","","html-slider-response","172","485391","0.0-168.0","1puhqn41nl","NaN","<div style=""width:500px;"">
                                <p style=""font-size:50px; font-weight:bold;""
                                ></p>
                                <div style=""width:240px; margin: auto;"">
                                    <img src=""images/D9.png"" style= ""width:200px""alt=""img"">
                                </div>
                            </div>","93","","0","images/D9.png","","","","[""Hard"",""Soft""]"
"","","","","","html-slider-response","173","487293","0.0-169.0","1puhqn41nl","NaN","<div style=""width:500px;"">
                                <p style=""font-size:50px; font-weight:bold;""
                                ></p>
                                <div style=""width:240px; margin: auto;"">
                                    <img src=""images/D4.png"" style= ""width:200px""alt=""img"">
                                </div>
                            </div>","-98","","0","images/D4.png","","","","[""Hard"",""Soft""]"
"","","","","","html-slider-response","174","489851","0.0-170.0","1puhqn41nl","NaN","<div style=""width:500px;"">
                                <p style=""font-size:50px; font-weight:bold;""
                                ></p>
                                <div style=""width:240px; margin: auto;"">
                                    <img src=""images/D16.png"" style= ""width:200px""alt=""img"">
                                </div>
                            </div>","-120","","0","images/D16.png","","","","[""Hard"",""Soft""]"
"","","","","","html-slider-response","175","509648","0.0-171.0","1puhqn41nl","NaN","<div style=""width:500px;"">
                                <p style=""font-size:50px; font-weight:bold;""
                                ></p>
                                <div style=""width:240px; margin: auto;"">
                                    <img src=""images/D95.png"" style= ""width:200px""alt=""img"">
                                </div>
                            </div>","-114","","0","images/D95.png","","","","[""Hard"",""Soft""]"
"","","","","","html-slider-response","176","511115","0.0-172.0","1puhqn41nl","NaN","<div style=""width:500px;"">
                                <p style=""font-size:50px; font-weight:bold;""
                                ></p>
                                <div style=""width:240px; margin: auto;"">
                                    <img src=""images/D56.png"" style= ""width:200px""alt=""img"">
                                </div>
                            </div>","-112","","0","images/D56.png","","","","[""Hard"",""Soft""]"
"","","","","","html-slider-response","177","512858","0.0-173.0","1puhqn41nl","NaN","<div style=""width:500px;"">
                                <p style=""font-size:50px; font-weight:bold;""
                                ></p>
                                <div style=""width:240px; margin: auto;"">
                                    <img src=""images/D79.png"" style= ""width:200px""alt=""img"">
                                </div>
                            </div>","70","","0","images/D79.png","","","","[""Hard"",""Soft""]"
"","","","","","html-slider-response","178","514569","0.0-174.0","1puhqn41nl","NaN","<div style=""width:500px;"">
                                <p style=""font-size:50px; font-weight:bold;""
                                ></p>
                                <div style=""width:240px; margin: auto;"">
                                    <img src=""images/D74.png"" style= ""width:200px""alt=""img"">
                                </div>
                            </div>","96","","0","images/D74.png","","","","[""Hard"",""Soft""]"
"","","","","","html-slider-response","179","516220","0.0-175.0","1puhqn41nl","NaN","<div style=""width:500px;"">
                                <p style=""font-size:50px; font-weight:bold;""
                                ></p>
                                <div style=""width:240px; margin: auto;"">
                                    <img src=""images/D19.png"" style= ""width:200px""alt=""img"">
                                </div>
                            </div>","-90","","0","images/D19.png","","","","[""Hard"",""Soft""]"
"","","","","","html-slider-response","180","517742","0.0-176.0","1puhqn41nl","NaN","<div style=""width:500px;"">
                                <p style=""font-size:50px; font-weight:bold;""
                                ></p>
                                <div style=""width:240px; margin: auto;"">
                                    <img src=""images/D46.png"" style= ""width:200px""alt=""img"">
                                </div>
                            </div>","-105","","0","images/D46.png","","","","[""Hard"",""Soft""]"
"","","","","","html-slider-response","181","519941","0.0-177.0","1puhqn41nl","NaN","<div style=""width:500px;"">
                                <p style=""font-size:50px; font-weight:bold;""
                                ></p>
                                <div style=""width:240px; margin: auto;"">
                                    <img src=""images/D75.png"" style= ""width:200px""alt=""img"">
                                </div>
                            </div>","155","","0","images/D75.png","","","","[""Hard"",""Soft""]"
"","","","","","html-slider-response","182","521476","0.0-178.0","1puhqn41nl","NaN","<div style=""width:500px;"">
                                <p style=""font-size:50px; font-weight:bold;""
                                ></p>
                                <div style=""width:240px; margin: auto;"">
                                    <img src=""images/D36.png"" style= ""width:200px""alt=""img"">
                                </div>
                            </div>","146","","0","images/D36.png","","","","[""Hard"",""Soft""]"
"","","","","","html-slider-response","183","523392","0.0-179.0","1puhqn41nl","NaN","<div style=""width:500px;"">
                                <p style=""font-size:50px; font-weight:bold;""
                                ></p>
                                <div style=""width:240px; margin: auto;"">
                                    <img src=""images/D21.png"" style= ""width:200px""alt=""img"">
                                </div>
                            </div>","-130","","0","images/D21.png","","","","[""Hard"",""Soft""]"
"","","","","","html-slider-response","184","524871","0.0-180.0","1puhqn41nl","NaN","<div style=""width:500px;"">
                                <p style=""font-size:50px; font-weight:bold;""
                                ></p>
                                <div style=""width:240px; margin: auto;"">
                                    <img src=""images/D24.png"" style= ""width:200px""alt=""img"">
                                </div>
                            </div>","-122","","0","images/D24.png","","","","[""Hard"",""Soft""]"
"","","","","","html-slider-response","185","526239","0.0-181.0","1puhqn41nl","NaN","<div style=""width:500px;"">
                                <p style=""font-size:50px; font-weight:bold;""
                                ></p>
                                <div style=""width:240px; margin: auto;"">
                                    <img src=""images/D26.png"" style= ""width:200px""alt=""img"">
                                </div>
                            </div>","-125","","0","images/D26.png","","","","[""Hard"",""Soft""]"
"","","","","","html-slider-response","186","527936","0.0-182.0","1puhqn41nl","NaN","<div style=""width:500px;"">
                                <p style=""font-size:50px; font-weight:bold;""
                                ></p>
                                <div style=""width:240px; margin: auto;"">
                                    <img src=""images/D35.png"" style= ""width:200px""alt=""img"">
                                </div>
                            </div>","98","","0","images/D35.png","","","","[""Hard"",""Soft""]"
"","","","","","html-slider-response","187","532722","0.0-183.0","1puhqn41nl","NaN","<div style=""width:500px;"">
                                <p style=""font-size:50px; font-weight:bold;""
                                ></p>
                                <div style=""width:240px; margin: auto;"">
