"success","timeout","failed_images","failed_audio","failed_video","trial_type","trial_index","time_elapsed","internal_node_id","subject_id","rt","stimulus","response","question_order","slider_start","image_path","practiceTrial","practiceTrialNum","correct","slider_labels"
"true","false","[]","[]","[]","preload","0","356","0.0-0.0","9sgugcme03","","","","","","","","","",""
"","","","","","html-button-response","1","1334","0.0-1.0","9sgugcme03","976","<div style='text-align:center; font-size:20px; line-height:25px; width: 1200px;'>
                Welcome to our experiment! <br>
                <br>At the bottom of this screen, you will see a button that says 'Begin Experiment.
                <br>Please only click that button when you are ready to complete the 25 minute experiment in one sitting. <br>
                <br> Once you click that button, it will not be possible to restart the experiment. <br><br>","0","","","","","","",""
"true","","","","","fullscreen","2","4636","0.0-2.0","9sgugcme03","2300","","","","","","","","",""
"","","","","","survey-multi-select","3","9351","0.0-3.0","9sgugcme03","4711","","{""Consent"":[""<strong>I consent</strong>""]}","[0]","","","","","",""
"","","","","","html-button-response","4","15817","0.0-4.0","9sgugcme03","6463","Welcome! <p> This experiment involves two parts: demographic information, followed by the experimental task.<p> It will take about 25 minutes to complete both parts.","0","","","","","","",""
"","","","","","survey-text","5","24467","0.0-5.0","9sgugcme03","8649","","{""Age"":""19"",""Gender"":""Male"",""Race/ethnicity"":""White""}","","","","","","",""
"","","","","","html-slider-response","6","56599","0.0-6.0","9sgugcme03","32132","
                <div style='text-align:center; height: auto; margin-left=-100px; margin-bottom: -20px; font-size:20px; line-height:5px; width: 1200px;'>
                    <br>During this experiment, you will see a series of textures, one at a time, like the ones below: 
                </div>
                    <br>
                    <br>
                    <img src=""anchoring_visual_textures.png"" alt=""img"" style=""max-width:1200px; margin-left: -10px;"">
                </div>
                <div style=""clear: both;""></div>
                </div>
                    <div style='text-align:center; margin-left=-100px; font-size:20px; line-height:20px; width: 1200px; margin-top: -50px;'>
                    
                    <br> For each texture, you will be asked to rate where you think it falls on each of the response scales with the following endpoints:
                    </div>
                            <div style=""text-align: center; width: 1400px; "">
                                <p style=""font-size:20px; line-height:5px; ""><b>Blobby</b> versus <b>Stripey</b></p>
                                <p style=""font-size:20px; line-height:5px; ""><b>Rounded</b> versus <b>Rectangular</b></p>
                                <p style=""font-size:20px;line-height:5px;""><b>Coarse</b> versus <b>Fine</b></p>
                                <p style=""font-size:20px;line-height:5px; ""><b>Rough</b> versus <b>Smooth</b></p>
                                <p style=""font-size:20px;line-height:5px; ""><b>Random</b> versus <b>Non-Random</b></p>
                                <p style=""font-size:20px;line-height:5px;""><b>Hard</b> versus <b>Soft</b></p>
                            </div>
                            <div style='text-align:center; font-size:20px; line-height:20px; width: 1400px;'>
                    
                    Each trial will include one texture and one response scale. You will be asked to make your rating by sliding the cursor along a slider response scale like the one below.
                    <br><br> Before beginning, please look at the textures and scales. For each scale, think about the texture you associate most with the left endpoint. When you see that texture for that response scale, please click near the left of the scale.
                    <br><br> Now, please think about the texture you associate most with the right endpoint of each scale. When you see that texture for that response scale, please click near the right of the scale. 
                    <br><br> If you think a texture is not strongly associated with either endpoint of the scale, please click near the midpoint of the scale. Please use the full range of the scale. 
                    <br><br> You will be asked to rate each texture for a given scale before moving on to the next scale.
                    <br><br> Please press the 'Continue' button for instructions on how to use the slider.                     <br><br>
                ","-25","","0","visual_textures_anchoring.png","true","","",""
"","","","","","html-button-response","7","59800","0.0-7.0","9sgugcme03","3200","<div style=""width:1200px; margin-top:-150px;""><p style=""text-align:center; font-size:24px;"">To move the slider, click and drag your cursor to the location of the scale where you would like to make your rating and then let go. <br><br> When you let go of the slider, your response will be recorded and the next trial will begin. <br><br><br>
                We are interested in your initial impressions of each texture and scale, so please go with your first intuition. <br><br>
                Before you begin the experiment, there will be four training trials for you to practice using the scale. <br><br><br><br></div>
                <div style=""width:1200px;""><p style=""text-align:center; font-size:20px;"">When you are ready to start the training trials, please click ""Continue"".</p></div>","0","","","","","","",""
"","","","","","html-slider-response","8","61695","0.0-8.0-0.0","9sgugcme03","NaN","<div style=""width:500px;"">
                                <p style=""font-size:25px;"">Please move the slider all the way to the <br> right endpoint of the scale</p>

                                </div>
                            </div>","200","","0","","true","0","true",""
"","","","","","html-button-response","9","63384","0.0-8.0-1.0","9sgugcme03","1187","<p align='center'><b>Good job!</b> Click on 'Continue' to proceed.</p>","0","","","","","","",""
"","","","","","html-slider-response","10","64444","0.0-9.0-0.0","9sgugcme03","NaN","<div style=""width:500px;"">
                                <p style=""font-size:25px;"">Please move the slider all the way to the <br> left endpoint of the scale</p>

                                </div>
                            </div>","-200","","0","","true","1","true",""
"","","","","","html-button-response","11","65550","0.0-9.0-1.0","9sgugcme03","604","<p align='center'><b>Good job!</b> Click on 'Continue' to proceed.</p>","0","","","","","","",""
"","","","","","html-slider-response","12","68663","0.0-10.0-0.0","9sgugcme03","NaN","<div style=""width:500px;"">
                                <p style=""font-size:25px;"">Please move the slider halfway between the center and right endpoint of the scale</p>

                                </div>
                            </div>","105","","0","","true","2","true",""
"","","","","","html-button-response","13","69834","0.0-10.0-1.0","9sgugcme03","667","<p align='center'><b>Good job!</b> Click on 'Continue' to proceed.</p>","0","","","","","","",""
"","","","","","html-slider-response","14","71265","0.0-11.0-0.0","9sgugcme03","NaN","<div style=""width:500px;"">
                                <p style=""font-size:25px;"">Please move the slider halfway between the center and left endpoint of the scale</p>

                                </div>
                            </div>","-106","","0","","true","3","true",""
"","","","","","html-button-response","15","72349","0.0-11.0-1.0","9sgugcme03","581","<p align='center'><b>Good job!</b> Click on 'Continue' to proceed.</p>","0","","","","","","",""
"","","","","","html-button-response","16","73216","0.0-12.0","9sgugcme03","866","<div style=""width:800px; margin-top:-300px;""><p style=""text-align:center; font-size:22px; line-height:25px;""""> Great job! You've completed the practice trials.</div>
                     <div style=""width:800px; margin-top:-20px;""><p style=""text-align:center""><br><br> In the following trials, you will be asked to rate textures on each scale one-by-one. <br> You will be given opportunities to take breaks when you have completed each block of trials. There are six total blocks of trials. <br><br> Please click continue to begin the main task.<br><br><br> </div>","0","","","","","","",""
"","","","","","html-button-response","17","78550","0.0-13.0","9sgugcme03","5334","In the following trials, you will be asked to rate textures on the scale <b>Hard</b> versus <b>Soft</b>. Please click 'Continue' when you are ready proceed.","0","","","","","","",""
"","","","","","html-slider-response","18","80395","0.0-14.0","9sgugcme03","NaN","<div style=""width:500px;"">
                                <p style=""font-size:50px; font-weight:bold;""
                                ></p>
                                <div style=""width:240px; margin: auto;"">
                                    <img src=""images/D75.png"" style= ""width:200px""alt=""img"">
                                </div>
                            </div>","108","","0","images/D75.png","","","","[""Hard"",""Soft""]"
"","","","","","html-slider-response","19","82577","0.0-15.0","9sgugcme03","NaN","<div style=""width:500px;"">
                                <p style=""font-size:50px; font-weight:bold;""
                                ></p>
                                <div style=""width:240px; margin: auto;"">
                                    <img src=""images/D46.png"" style= ""width:200px""alt=""img"">
                                </div>
                            </div>","140","","0","images/D46.png","","","","[""Hard"",""Soft""]"
"","","","","","html-slider-response","20","84262","0.0-16.0","9sgugcme03","NaN","<div style=""width:500px;"">
                                <p style=""font-size:50px; font-weight:bold;""
                                ></p>
                                <div style=""width:240px; margin: auto;"">
                                    <img src=""images/D103.png"" style= ""width:200px""alt=""img"">
                                </div>
                            </div>","63","","0","images/D103.png","","","","[""Hard"",""Soft""]"
"","","","","","html-slider-response","21","86228","0.0-17.0","9sgugcme03","NaN","<div style=""width:500px;"">
                                <p style=""font-size:50px; font-weight:bold;""
                                ></p>
                                <div style=""width:240px; margin: auto;"">
                                    <img src=""images/D77.png"" style= ""width:200px""alt=""img"">
                                </div>
                            </div>","186","","0","images/D77.png","","","","[""Hard"",""Soft""]"
"","","","","","html-slider-response","22","88212","0.0-18.0","9sgugcme03","NaN","<div style=""width:500px;"">
                                <p style=""font-size:50px; font-weight:bold;""
                                ></p>
                                <div style=""width:240px; margin: auto;"">
                                    <img src=""images/D17.png"" style= ""width:200px""alt=""img"">
                                </div>
                            </div>","160","","0","images/D17.png","","","","[""Hard"",""Soft""]"
"","","","","","html-slider-response","23","90312","0.0-19.0","9sgugcme03","NaN","<div style=""width:500px;"">
                                <p style=""font-size:50px; font-weight:bold;""
                                ></p>
                                <div style=""width:240px; margin: auto;"">
                                    <img src=""images/D51.png"" style= ""width:200px""alt=""img"">
                                </div>
                            </div>","-192","","0","images/D51.png","","","","[""Hard"",""Soft""]"
"","","","","","html-slider-response","24","93294","0.0-20.0","9sgugcme03","NaN","<div style=""width:500px;"">
                                <p style=""font-size:50px; font-weight:bold;""
                                ></p>
                                <div style=""width:240px; margin: auto;"">
                                    <img src=""images/D4.png"" style= ""width:200px""alt=""img"">
                                </div>
                            </div>","154","","0","images/D4.png","","","","[""Hard"",""Soft""]"
"","","","","","html-slider-response","25","95077","0.0-21.0","9sgugcme03","NaN","<div style=""width:500px;"">
                                <p style=""font-size:50px; font-weight:bold;""
                                ></p>
                                <div style=""width:240px; margin: auto;"">
                                    <img src=""images/D6.png"" style= ""width:200px""alt=""img"">
                                </div>
                            </div>","-165","","0","images/D6.png","","","","[""Hard"",""Soft""]"
"","","","","","html-slider-response","26","97097","0.0-22.0","9sgugcme03","NaN","<div style=""width:500px;"">
                                <p style=""font-size:50px; font-weight:bold;""
                                ></p>
                                <div style=""width:240px; margin: auto;"">
                                    <img src=""images/D104.png"" style= ""width:200px""alt=""img"">
                                </div>
                            </div>","-200","","0","images/D104.png","","","","[""Hard"",""Soft""]"
"","","","","","html-slider-response","27","100178","0.0-23.0","9sgugcme03","NaN","<div style=""width:500px;"">
                                <p style=""font-size:50px; font-weight:bold;""
                                ></p>
                                <div style=""width:240px; margin: auto;"">
                                    <img src=""images/D48.png"" style= ""width:200px""alt=""img"">
                                </div>
                            </div>","139","","0","images/D48.png","","","","[""Hard"",""Soft""]"
"","","","","","html-slider-response","28","103794","0.0-24.0","9sgugcme03","NaN","<div style=""width:500px;"">
                                <p style=""font-size:50px; font-weight:bold;""
                                ></p>
                                <div style=""width:240px; margin: auto;"">
                                    <img src=""images/D83.png"" style= ""width:200px""alt=""img"">
                                </div>
                            </div>","167","","0","images/D83.png","","","","[""Hard"",""Soft""]"
"","","","","","html-slider-response","29","105628","0.0-25.0","9sgugcme03","NaN","<div style=""width:500px;"">
                                <p style=""font-size:50px; font-weight:bold;""
                                ></p>
                                <div style=""width:240px; margin: auto;"">
                                    <img src=""images/D65.png"" style= ""width:200px""alt=""img"">
                                </div>
                            </div>","-169","","0","images/D65.png","","","","[""Hard"",""Soft""]"
"","","","","","html-slider-response","30","107529","0.0-26.0","9sgugcme03","NaN","<div style=""width:500px;"">
                                <p style=""font-size:50px; font-weight:bold;""
                                ></p>
                                <div style=""width:240px; margin: auto;"">
                                    <img src=""images/D34.png"" style= ""width:200px""alt=""img"">
                                </div>
                            </div>","-170","","0","images/D34.png","","","","[""Hard"",""Soft""]"
"","","","","","html-slider-response","31","109380","0.0-27.0","9sgugcme03","NaN","<div style=""width:500px;"">
                                <p style=""font-size:50px; font-weight:bold;""
                                ></p>
                                <div style=""width:240px; margin: auto;"">
                                    <img src=""images/D57.png"" style= ""width:200px""alt=""img"">
                                </div>
                            </div>","130","","0","images/D57.png","","","","[""Hard"",""Soft""]"
"","","","","","html-slider-response","32","111563","0.0-28.0","9sgugcme03","NaN","<div style=""width:500px;"">
                                <p style=""font-size:50px; font-weight:bold;""
                                ></p>
                                <div style=""width:240px; margin: auto;"">
                                    <img src=""images/D79.png"" style= ""width:200px""alt=""img"">
                                </div>
                            </div>","155","","0","images/D79.png","","","","[""Hard"",""Soft""]"
"","","","","","html-slider-response","33","113511","0.0-29.0","9sgugcme03","NaN","<div style=""width:500px;"">
                                <p style=""font-size:50px; font-weight:bold;""
                                ></p>
                                <div style=""width:240px; margin: auto;"">
                                    <img src=""images/D56.png"" style= ""width:200px""alt=""img"">
                                </div>
                            </div>","-104","","0","images/D56.png","","","","[""Hard"",""Soft""]"
"","","","","","html-slider-response","34","115544","0.0-30.0","9sgugcme03","NaN","<div style=""width:500px;"">
                                <p style=""font-size:50px; font-weight:bold;""
                                ></p>
                                <div style=""width:240px; margin: auto;"">
                                    <img src=""images/D66.png"" style= ""width:200px""alt=""img"">
                                </div>
                            </div>","157","","0","images/D66.png","","","","[""Hard"",""Soft""]"
"","","","","","html-slider-response","35","117178","0.0-31.0","9sgugcme03","NaN","<div style=""width:500px;"">
                                <p style=""font-size:50px; font-weight:bold;""
                                ></p>
                                <div style=""width:240px; margin: auto;"">
                                    <img src=""images/D95.png"" style= ""width:200px""alt=""img"">
                                </div>
                            </div>","-172","","0","images/D95.png","","","","[""Hard"",""Soft""]"
"","","","","","html-slider-response","36","118830","0.0-32.0","9sgugcme03","NaN","<div style=""width:500px;"">
                                <p style=""font-size:50px; font-weight:bold;""
                                ></p>
                                <div style=""width:240px; margin: auto;"">
                                    <img src=""images/D55.png"" style= ""width:200px""alt=""img"">
                                </div>
                            </div>","146","","0","images/D55.png","","","","[""Hard"",""Soft""]"
"","","","","","html-slider-response","37","121994","0.0-33.0","9sgugcme03","NaN","<div style=""width:500px;"">
                                <p style=""font-size:50px; font-weight:bold;""
                                ></p>
                                <div style=""width:240px; margin: auto;"">
                                    <img src=""images/D81.png"" style= ""width:200px""alt=""img"">
                                </div>
                            </div>","156","","0","images/D81.png","","","","[""Hard"",""Soft""]"
"","","","","","html-slider-response","38","123944","0.0-34.0","9sgugcme03","NaN","<div style=""width:500px;"">
                                <p style=""font-size:50px; font-weight:bold;""
                                ></p>
                                <div style=""width:240px; margin: auto;"">
                                    <img src=""images/D35.png"" style= ""width:200px""alt=""img"">
                                </div>
                            </div>","166","","0","images/D35.png","","","","[""Hard"",""Soft""]"
"","","","","","html-slider-response","39","126028","0.0-35.0","9sgugcme03","NaN","<div style=""width:500px;"">
                                <p style=""font-size:50px; font-weight:bold;""
                                ></p>
                                <div style=""width:240px; margin: auto;"">
                                    <img src=""images/D111.png"" style= ""width:200px""alt=""img"">
                                </div>
                            </div>","154","","0","images/D111.png","","","","[""Hard"",""Soft""]"
"","","","","","html-slider-response","40","128629","0.0-36.0","9sgugcme03","NaN","<div style=""width:500px;"">
                                <p style=""font-size:50px; font-weight:bold;""
                                ></p>
                                <div style=""width:240px; margin: auto;"">
                                    <img src=""images/D32.png"" style= ""width:200px""alt=""img"">
                                </div>
                            </div>","188","","0","images/D32.png","","","","[""Hard"",""Soft""]"
"","","","","","html-slider-response","41","131162","0.0-37.0","9sgugcme03","NaN","<div style=""width:500px;"">
                                <p style=""font-size:50px; font-weight:bold;""
                                ></p>
                                <div style=""width:240px; margin: auto;"">
                                    <img src=""images/D74.png"" style= ""width:200px""alt=""img"">
                                </div>
                            </div>","39","","0","images/D74.png","","","","[""Hard"",""Soft""]"
"","","","","","html-slider-response","42","133162","0.0-38.0","9sgugcme03","NaN","<div style=""width:500px;"">
                                <p style=""font-size:50px; font-weight:bold;""
                                ></p>
                                <div style=""width:240px; margin: auto;"">
                                    <img src=""images/D87.png"" style= ""width:200px""alt=""img"">
                                </div>
                            </div>","-94","","0","images/D87.png","","","","[""Hard"",""Soft""]"
"","","","","","html-slider-response","43","135062","0.0-39.0","9sgugcme03","NaN","<div style=""width:500px;"">
                                <p style=""font-size:50px; font-weight:bold;""
                                ></p>
                                <div style=""width:240px; margin: auto;"">
                                    <img src=""images/D64.png"" style= ""width:200px""alt=""img"">
                                </div>
                            </div>","-119","","0","images/D64.png","","","","[""Hard"",""Soft""]"
"","","","","","html-slider-response","44","136544","0.0-40.0","9sgugcme03","NaN","<div style=""width:500px;"">
                                <p style=""font-size:50px; font-weight:bold;""
                                ></p>
                                <div style=""width:240px; margin: auto;"">
                                    <img src=""images/D1.png"" style= ""width:200px""alt=""img"">
                                </div>
                            </div>","-198","","0","images/D1.png","","","","[""Hard"",""Soft""]"
"","","","","","html-slider-response","45","140296","0.0-41.0","9sgugcme03","NaN","<div style=""width:500px;"">
                                <p style=""font-size:50px; font-weight:bold;""
                                ></p>
                                <div style=""width:240px; margin: auto;"">
                                    <img src=""images/D78.png"" style= ""width:200px""alt=""img"">
                                </div>
                            </div>","83","","0","images/D78.png","","","","[""Hard"",""Soft""]"
"","","","","","html-slider-response","46","142844","0.0-42.0","9sgugcme03","NaN","<div style=""width:500px;"">
                                <p style=""font-size:50px; font-weight:bold;""
                                ></p>
                                <div style=""width:240px; margin: auto;"">
                                    <img src=""images/D82.png"" style= ""width:200px""alt=""img"">
                                </div>
                            </div>","74","","0","images/D82.png","","","","[""Hard"",""Soft""]"
"","","","","","html-slider-response","47","145515","0.0-43.0","9sgugcme03","NaN","<div style=""width:500px;"">
                                <p style=""font-size:50px; font-weight:bold;""
                                ></p>
                                <div style=""width:240px; margin: auto;"">
                                    <img src=""images/D21.png"" style= ""width:200px""alt=""img"">
                                </div>
                            </div>","-65","","0","images/D21.png","","","","[""Hard"",""Soft""]"
"","","","","","html-slider-response","48","147028","0.0-44.0","9sgugcme03","NaN","<div style=""width:500px;"">
                                <p style=""font-size:50px; font-weight:bold;""
                                ></p>
                                <div style=""width:240px; margin: auto;"">
                                    <img src=""images/D25.png"" style= ""width:200px""alt=""img"">
                                </div>
                            </div>","-200","","0","images/D25.png","","","","[""Hard"",""Soft""]"
"","","","","","html-slider-response","49","148662","0.0-45.0","9sgugcme03","NaN","<div style=""width:500px;"">
                                <p style=""font-size:50px; font-weight:bold;""
                                ></p>
                                <div style=""width:240px; margin: auto;"">
                                    <img src=""images/D14.png"" style= ""width:200px""alt=""img"">
                                </div>
                            </div>","62","","0","images/D14.png","","","","[""Hard"",""Soft""]"
"","","","","","html-slider-response","50","151127","0.0-46.0","9sgugcme03","NaN","<div style=""width:500px;"">
                                <p style=""font-size:50px; font-weight:bold;""
                                ></p>
                                <div style=""width:240px; margin: auto;"">
                                    <img src=""images/D24.png"" style= ""width:200px""alt=""img"">
                                </div>
                            </div>","98","","0","images/D24.png","","","","[""Hard"",""Soft""]"
"","","","","","html-slider-response","51","154660","0.0-47.0","9sgugcme03","NaN","<div style=""width:500px;"">
                                <p style=""font-size:50px; font-weight:bold;""
                                ></p>
                                <div style=""width:240px; margin: auto;"">
                                    <img src=""images/D11.png"" style= ""width:200px""alt=""img"">
                                </div>
                            </div>","-104","","0","images/D11.png","","","","[""Hard"",""Soft""]"
"","","","","","html-slider-response","52","157445","0.0-48.0","9sgugcme03","NaN","<div style=""width:500px;"">
                                <p style=""font-size:50px; font-weight:bold;""
                                ></p>
                                <div style=""width:240px; margin: auto;"">
                                    <img src=""images/D49.png"" style= ""width:200px""alt=""img"">
                                </div>
                            </div>","57","","0","images/D49.png","","","","[""Hard"",""Soft""]"
"","","","","","html-slider-response","53","159145","0.0-49.0","9sgugcme03","NaN","<div style=""width:500px;"">
                                <p style=""font-size:50px; font-weight:bold;""
                                ></p>
                                <div style=""width:240px; margin: auto;"">
                                    <img src=""images/D26.png"" style= ""width:200px""alt=""img"">
                                </div>
                            </div>","-200","","0","images/D26.png","","","","[""Hard"",""Soft""]"
"","","","","","html-slider-response","54","161460","0.0-50.0","9sgugcme03","NaN","<div style=""width:500px;"">
                                <p style=""font-size:50px; font-weight:bold;""
                                ></p>
                                <div style=""width:240px; margin: auto;"">
                                    <img src=""images/D102.png"" style= ""width:200px""alt=""img"">
                                </div>
                            </div>","42","","0","images/D102.png","","","","[""Hard"",""Soft""]"
"","","","","","html-slider-response","55","163078","0.0-51.0","9sgugcme03","NaN","<div style=""width:500px;"">
                                <p style=""font-size:50px; font-weight:bold;""
                                ></p>
                                <div style=""width:240px; margin: auto;"">
                                    <img src=""images/D52.png"" style= ""width:200px""alt=""img"">
                                </div>
                            </div>","-200","","0","images/D52.png","","","","[""Hard"",""Soft""]"
"","","","","","html-slider-response","56","164795","0.0-52.0","9sgugcme03","NaN","<div style=""width:500px;"">
                                <p style=""font-size:50px; font-weight:bold;""
                                ></p>
                                <div style=""width:240px; margin: auto;"">
                                    <img src=""images/D53.png"" style= ""width:200px""alt=""img"">
                                </div>
                            </div>","118","","0","images/D53.png","","","","[""Hard"",""Soft""]"
"","","","","","html-slider-response","57","166128","0.0-53.0","9sgugcme03","NaN","<div style=""width:500px;"">
                                <p style=""font-size:50px; font-weight:bold;""
                                ></p>
                                <div style=""width:240px; margin: auto;"">
                                    <img src=""images/D9.png"" style= ""width:200px""alt=""img"">
                                </div>
                            </div>","69","","0","images/D9.png","","","","[""Hard"",""Soft""]"
"","","","","","html-slider-response","58","168660","0.0-54.0","9sgugcme03","NaN","<div style=""width:500px;"">
                                <p style=""font-size:50px; font-weight:bold;""
                                ></p>
                                <div style=""width:240px; margin: auto;"">
                                    <img src=""images/D36.png"" style= ""width:200px""alt=""img"">
                                </div>
                            </div>","63","","0","images/D36.png","","","","[""Hard"",""Soft""]"
"","","","","","html-slider-response","59","170860","0.0-55.0","9sgugcme03","NaN","<div style=""width:500px;"">
                                <p style=""font-size:50px; font-weight:bold;""
                                ></p>
                                <div style=""width:240px; margin: auto;"">
                                    <img src=""images/D105.png"" style= ""width:200px""alt=""img"">
                                </div>
                            </div>","-200","","0","images/D105.png","","","","[""Hard"",""Soft""]"
"","","","","","html-slider-response","60","172679","0.0-56.0","9sgugcme03","NaN","<div style=""width:500px;"">
                                <p style=""font-size:50px; font-weight:bold;""
                                ></p>
                                <div style=""width:240px; margin: auto;"">
                                    <img src=""images/D22.png"" style= ""width:200px""alt=""img"">
                                </div>
                            </div>","50","","0","images/D22.png","","","","[""Hard"",""Soft""]"
"","","","","","html-slider-response","61","175311","0.0-57.0","9sgugcme03","NaN","<div style=""width:500px;"">
                                <p style=""font-size:50px; font-weight:bold;""
                                ></p>
                                <div style=""width:240px; margin: auto;"">
                                    <img src=""images/D20.png"" style= ""width:200px""alt=""img"">
                                </div>
                            </div>","-106","","0","images/D20.png","","","","[""Hard"",""Soft""]"
"","","","","","html-slider-response","62","176981","0.0-58.0","9sgugcme03","NaN","<div style=""width:500px;"">
                                <p style=""font-size:50px; font-weight:bold;""
                                ></p>
                                <div style=""width:240px; margin: auto;"">
                                    <img src=""images/D19.png"" style= ""width:200px""alt=""img"">
                                </div>
                            </div>","182","","0","images/D19.png","","","","[""Hard"",""Soft""]"
"","","","","","html-slider-response","63","179045","0.0-59.0","9sgugcme03","NaN","<div style=""width:500px;"">
                                <p style=""font-size:50px; font-weight:bold;""
                                ></p>
                                <div style=""width:240px; margin: auto;"">
                                    <img src=""images/D106.png"" style= ""width:200px""alt=""img"">
                                </div>
                            </div>","106","","0","images/D106.png","","","","[""Hard"",""Soft""]"
"","","","","","html-slider-response","64","185348","0.0-60.0","9sgugcme03","NaN","<div style=""width:500px;"">
                                <p style=""font-size:50px; font-weight:bold;""
                                ></p>
                                <div style=""width:240px; margin: auto;"">
                                    <img src=""images/D18.png"" style= ""width:200px""alt=""img"">
                                </div>
                            </div>","66","","0","images/D18.png","","","","[""Hard"",""Soft""]"
"","","","","","html-slider-response","65","187495","0.0-61.0","9sgugcme03","NaN","<div style=""width:500px;"">
                                <p style=""font-size:50px; font-weight:bold;""
                                ></p>
                                <div style=""width:240px; margin: auto;"">
                                    <img src=""images/D8.png"" style= ""width:200px""alt=""img"">
                                </div>
                            </div>","-70","","0","images/D8.png","","","","[""Hard"",""Soft""]"
"","","","","","html-slider-response","66","189014","0.0-62.0","9sgugcme03","NaN","<div style=""width:500px;"">
                                <p style=""font-size:50px; font-weight:bold;""
                                ></p>
                                <div style=""width:240px; margin: auto;"">
                                    <img src=""images/D16.png"" style= ""width:200px""alt=""img"">
                                </div>
                            </div>","-200","","0","images/D16.png","","","","[""Hard"",""Soft""]"
"","","","","","html-slider-response","67","193443","0.0-63.0","9sgugcme03","NaN","<div style=""width:500px;"">
                                <p style=""font-size:50px; font-weight:bold;""
                                ></p>
                                <div style=""width:240px; margin: auto;"">
                                    <img src=""images/D85.png"" style= ""width:200px""alt=""img"">
                                </div>
                            </div>","-92","","0","images/D85.png","","","","[""Hard"",""Soft""]"
"","","","","","html-slider-response","68","195263","0.0-64.0","9sgugcme03","NaN","<div style=""width:500px;"">
                                <p style=""font-size:50px; font-weight:bold;""
                                ></p>
                                <div style=""width:240px; margin: auto;"">
                                    <img src=""images/D76.png"" style= ""width:200px""alt=""img"">
                                </div>
                            </div>","95","","0","images/D76.png","","","","[""Hard"",""Soft""]"
"","","","","","html-slider-response","69","198531","0.0-65.0","9sgugcme03","NaN","<div style=""width:500px;"">
                                <p style=""font-size:50px; font-weight:bold;""
                                ></p>
                                <div style=""width:240px; margin: auto;"">
                                    <img src=""images/D37.png"" style= ""width:200px""alt=""img"">
                                </div>
                            </div>","-93","","0","images/D37.png","","","","[""Hard"",""Soft""]"
"","","","","","html-slider-response","70","200144","0.0-66.0","9sgugcme03","NaN","<div style=""width:500px;"">
                                <p style=""font-size:50px; font-weight:bold;""
                                ></p>
                                <div style=""width:240px; margin: auto;"">
                                    <img src=""images/D92.png"" style= ""width:200px""alt=""img"">
                                </div>
                            </div>","200","","0","images/D92.png","","","","[""Hard"",""Soft""]"
"","","","","","html-slider-response","71","201962","0.0-67.0","9sgugcme03","NaN","<div style=""width:500px;"">
                                <p style=""font-size:50px; font-weight:bold;""
                                ></p>
                                <div style=""width:240px; margin: auto;"">
                                    <img src=""images/D94.png"" style= ""width:200px""alt=""img"">
                                </div>
                            </div>","-200","","0","images/D94.png","","","","[""Hard"",""Soft""]"
"","","","","","html-slider-response","72","204162","0.0-68.0","9sgugcme03","NaN","<div style=""width:500px;"">
                                <p style=""font-size:50px; font-weight:bold;""
                                ></p>
                                <div style=""width:240px; margin: auto;"">
                                    <img src=""images/D68.png"" style= ""width:200px""alt=""img"">
                                </div>
                            </div>","78","","0","images/D68.png","","","","[""Hard"",""Soft""]"
"","","","","","html-slider-response","73","205613","0.0-69.0","9sgugcme03","NaN","<div style=""width:500px;"">
                                <p style=""font-size:50px; font-weight:bold;""
                                ></p>
                                <div style=""width:240px; margin: auto;"">
                                    <img src=""images/D96.png"" style= ""width:200px""alt=""img"">
                                </div>
                            </div>","-200","","0","images/D96.png","","","","[""Hard"",""Soft""]"
"","","","","","html-slider-response","74","207310","0.0-70.0","9sgugcme03","NaN","<div style=""width:500px;"">
                                <p style=""font-size:50px; font-weight:bold;""
                                ></p>
                                <div style=""width:240px; margin: auto;"">
                                    <img src=""images/D47.png"" style= ""width:200px""alt=""img"">
                                </div>
                            </div>","66","","0","images/D47.png","","","","[""Hard"",""Soft""]"
"","","","","","html-slider-response","75","208611","0.0-71.0","9sgugcme03","NaN","<div style=""width:500px;"">
                                <p style=""font-size:50px; font-weight:bold;""
                                ></p>
                                <div style=""width:240px; margin: auto;"">
                                    <img src=""images/D29.png"" style= ""width:200px""alt=""img"">
                                </div>
                            </div>","54","","0","images/D29.png","","","","[""Hard"",""Soft""]"
"","","","","","html-slider-response","76","210178","0.0-72.0","9sgugcme03","NaN","<div style=""width:500px;"">
                                <p style=""font-size:50px; font-weight:bold;""
                                ></p>
                                <div style=""width:240px; margin: auto;"">
                                    <img src=""images/D84.png"" style= ""width:200px""alt=""img"">
                                </div>
                            </div>","118","","0","images/D84.png","","","","[""Hard"",""Soft""]"
"","","","","","html-slider-response","77","211462","0.0-73.0","9sgugcme03","NaN","<div style=""width:500px;"">
                                <p style=""font-size:50px; font-weight:bold;""
                                ></p>
                                <div style=""width:240px; margin: auto;"">
                                    <img src=""images/D80.png"" style= ""width:200px""alt=""img"">
                                </div>
                            </div>","117","","0","images/D80.png","","","","[""Hard"",""Soft""]"
"","","","","","html-slider-response","78","213014","0.0-74.0","9sgugcme03","NaN","<div style=""width:500px;"">
                                <p style=""font-size:50px; font-weight:bold;""
                                ></p>
                                <div style=""width:240px; margin: auto;"">
                                    <img src=""images/D3.png"" style= ""width:200px""alt=""img"">
                                </div>
                            </div>","71","","0","images/D3.png","","","","[""Hard"",""Soft""]"
"","","","","","html-slider-response","79","214595","0.0-75.0","9sgugcme03","NaN","<div style=""width:500px;"">
                                <p style=""font-size:50px; font-weight:bold;""
                                ></p>
                                <div style=""width:240px; margin: auto;"">
                                    <img src=""images/D101.png"" style= ""width:200px""alt=""img"">
                                </div>
                            </div>","-79","","0","images/D101.png","","","","[""Hard"",""Soft""]"
"","","","","","html-button-response","80","216617","0.0-76.0","9sgugcme03","1519","You have completed the first block of trials out of six. Please click 'Continue' when you are ready proceed.","0","","","","","","",""
"","","","","","html-button-response","81","218385","0.0-77.0","9sgugcme03","1767","In the following trials, you will be asked to rate textures on the scale <b>Coarse</b> versus <b>Fine</b>. Please click 'Continue' when you are ready proceed.","0","","","","","","",""
"","","","","","html-slider-response","82","220078","0.0-78.0","9sgugcme03","NaN","<div style=""width:500px;"">
                                <p style=""font-size:50px; font-weight:bold;""
                                ></p>
                                <div style=""width:240px; margin: auto;"">
                                    <img src=""images/D103.png"" style= ""width:200px""alt=""img"">
                                </div>
                            </div>","-151","","0","images/D103.png","","","","[""Coarse"",""Fine""]"
"","","","","","html-slider-response","83","221712","0.0-79.0","9sgugcme03","NaN","<div style=""width:500px;"">
                                <p style=""font-size:50px; font-weight:bold;""
                                ></p>
                                <div style=""width:240px; margin: auto;"">
                                    <img src=""images/D49.png"" style= ""width:200px""alt=""img"">
                                </div>
                            </div>","94","","0","images/D49.png","","","","[""Coarse"",""Fine""]"
"","","","","","html-slider-response","84","223394","0.0-80.0","9sgugcme03","NaN","<div style=""width:500px;"">
                                <p style=""font-size:50px; font-weight:bold;""
                                ></p>
                                <div style=""width:240px; margin: auto;"">
                                    <img src=""images/D6.png"" style= ""width:200px""alt=""img"">
                                </div>
                            </div>","107","","0","images/D6.png","","","","[""Coarse"",""Fine""]"
"","","","","","html-slider-response","85","225228","0.0-81.0","9sgugcme03","NaN","<div style=""width:500px;"">
                                <p style=""font-size:50px; font-weight:bold;""
                                ></p>
                                <div style=""width:240px; margin: auto;"">
                                    <img src=""images/D22.png"" style= ""width:200px""alt=""img"">
                                </div>
                            </div>","128","","0","images/D22.png","","","","[""Coarse"",""Fine""]"
"","","","","","html-slider-response","86","227664","0.0-82.0","9sgugcme03","NaN","<div style=""width:500px;"">
                                <p style=""font-size:50px; font-weight:bold;""
                                ></p>
                                <div style=""width:240px; margin: auto;"">
                                    <img src=""images/D4.png"" style= ""width:200px""alt=""img"">
                                </div>
                            </div>","-127","","0","images/D4.png","","","","[""Coarse"",""Fine""]"
"","","","","","html-slider-response","87","230330","0.0-83.0","9sgugcme03","NaN","<div style=""width:500px;"">
                                <p style=""font-size:50px; font-weight:bold;""
                                ></p>
                                <div style=""width:240px; margin: auto;"">
                                    <img src=""images/D95.png"" style= ""width:200px""alt=""img"">
                                </div>
                            </div>","161","","0","images/D95.png","","","","[""Coarse"",""Fine""]"
"","","","","","html-slider-response","88","231661","0.0-84.0","9sgugcme03","NaN","<div style=""width:500px;"">
                                <p style=""font-size:50px; font-weight:bold;""
                                ></p>
                                <div style=""width:240px; margin: auto;"">
                                    <img src=""images/D75.png"" style= ""width:200px""alt=""img"">
                                </div>
                            </div>","-116","","0","images/D75.png","","","","[""Coarse"",""Fine""]"
"","","","","","html-slider-response","89","233361","0.0-85.0","9sgugcme03","NaN","<div style=""width:500px;"">
                                <p style=""font-size:50px; font-weight:bold;""
                                ></p>
                                <div style=""width:240px; margin: auto;"">
                                    <img src=""images/D80.png"" style= ""width:200px""alt=""img"">
                                </div>
                            </div>","-100","","0","images/D80.png","","","","[""Coarse"",""Fine""]"
"","","","","","html-slider-response","90","234894","0.0-86.0","9sgugcme03","NaN","<div style=""width:500px;"">
                                <p style=""font-size:50px; font-weight:bold;""
                                ></p>
                                <div style=""width:240px; margin: auto;"">
                                    <img src=""images/D25.png"" style= ""width:200px""alt=""img"">
                                </div>
                            </div>","50","","0","images/D25.png","","","","[""Coarse"",""Fine""]"
"","","","","","html-slider-response","91","236211","0.0-87.0","9sgugcme03","NaN","<div style=""width:500px;"">
                                <p style=""font-size:50px; font-weight:bold;""
                                ></p>
                                <div style=""width:240px; margin: auto;"">
                                    <img src=""images/D26.png"" style= ""width:200px""alt=""img"">
                                </div>
                            </div>","164","","0","images/D26.png","","","","[""Coarse"",""Fine""]"
"","","","","","html-slider-response","92","237845","0.0-88.0","9sgugcme03","NaN","<div style=""width:500px;"">
                                <p style=""font-size:50px; font-weight:bold;""
                                ></p>
                                <div style=""width:240px; margin: auto;"">
                                    <img src=""images/D104.png"" style= ""width:200px""alt=""img"">
                                </div>
                            </div>","-137","","0","images/D104.png","","","","[""Coarse"",""Fine""]"
"","","","","","html-slider-response","93","239211","0.0-89.0","9sgugcme03","NaN","<div style=""width:500px;"">
                                <p style=""font-size:50px; font-weight:bold;""
                                ></p>
                                <div style=""width:240px; margin: auto;"">
                                    <img src=""images/D82.png"" style= ""width:200px""alt=""img"">
                                </div>
                            </div>","-106","","0","images/D82.png","","","","[""Coarse"",""Fine""]"
"","","","","","html-slider-response","94","243477","0.0-90.0","9sgugcme03","NaN","<div style=""width:500px;"">
                                <p style=""font-size:50px; font-weight:bold;""
                                ></p>
                                <div style=""width:240px; margin: auto;"">
                                    <img src=""images/D66.png"" style= ""width:200px""alt=""img"">
                                </div>
                            </div>","106","","0","images/D66.png","","","","[""Coarse"",""Fine""]"
"","","","","","html-slider-response","95","244978","0.0-91.0","9sgugcme03","NaN","<div style=""width:500px;"">
                                <p style=""font-size:50px; font-weight:bold;""
                                ></p>
                                <div style=""width:240px; margin: auto;"">
                                    <img src=""images/D37.png"" style= ""width:200px""alt=""img"">
                                </div>
                            </div>","-101","","0","images/D37.png","","","","[""Coarse"",""Fine""]"
"","","","","","html-slider-response","96","247681","0.0-92.0","9sgugcme03","NaN","<div style=""width:500px;"">
                                <p style=""font-size:50px; font-weight:bold;""
                                ></p>
                                <div style=""width:240px; margin: auto;"">
                                    <img src=""images/D81.png"" style= ""width:200px""alt=""img"">
                                </div>
                            </div>","-117","","0","images/D81.png","","","","[""Coarse"",""Fine""]"
"","","","","","html-slider-response","97","250162","0.0-93.0","9sgugcme03","NaN","<div style=""width:500px;"">
                                <p style=""font-size:50px; font-weight:bold;""
                                ></p>
                                <div style=""width:240px; margin: auto;"">
                                    <img src=""images/D101.png"" style= ""width:200px""alt=""img"">
                                </div>
                            </div>","-104","","0","images/D101.png","","","","[""Coarse"",""Fine""]"
"","","","","","html-slider-response","98","252929","0.0-94.0","9sgugcme03","NaN","<div style=""width:500px;"">
                                <p style=""font-size:50px; font-weight:bold;""
                                ></p>
                                <div style=""width:240px; margin: auto;"">
                                    <img src=""images/D56.png"" style= ""width:200px""alt=""img"">
                                </div>
                            </div>","-110","","0","images/D56.png","","","","[""Coarse"",""Fine""]"
"","","","","","html-slider-response","99","254679","0.0-95.0","9sgugcme03","NaN","<div style=""width:500px;"">
                                <p style=""font-size:50px; font-weight:bold;""
                                ></p>
                                <div style=""width:240px; margin: auto;"">
                                    <img src=""images/D77.png"" style= ""width:200px""alt=""img"">
                                </div>
                            </div>","200","","0","images/D77.png","","","","[""Coarse"",""Fine""]"
"","","","","","html-slider-response","100","257044","0.0-96.0","9sgugcme03","NaN","<div style=""width:500px;"">
                                <p style=""font-size:50px; font-weight:bold;""
                                ></p>
                                <div style=""width:240px; margin: auto;"">
                                    <img src=""images/D76.png"" style= ""width:200px""alt=""img"">
                                </div>
                            </div>","-200","","0","images/D76.png","","","","[""Coarse"",""Fine""]"
"","","","","","html-slider-response","101","259179","0.0-97.0","9sgugcme03","NaN","<div style=""width:500px;"">
                                <p style=""font-size:50px; font-weight:bold;""
                                ></p>
                                <div style=""width:240px; margin: auto;"">
                                    <img src=""images/D19.png"" style= ""width:200px""alt=""img"">
                                </div>
                            </div>","-187","","0","images/D19.png","","","","[""Coarse"",""Fine""]"
"","","","","","html-slider-response","102","261428","0.0-98.0","9sgugcme03","NaN","<div style=""width:500px;"">
                                <p style=""font-size:50px; font-weight:bold;""
                                ></p>
                                <div style=""width:240px; margin: auto;"">
                                    <img src=""images/D17.png"" style= ""width:200px""alt=""img"">
                                </div>
                            </div>","-115","","0","images/D17.png","","","","[""Coarse"",""Fine""]"
"","","","","","html-slider-response","103","263281","0.0-99.0","9sgugcme03","NaN","<div style=""width:500px;"">
                                <p style=""font-size:50px; font-weight:bold;""
                                ></p>
                                <div style=""width:240px; margin: auto;"">
                                    <img src=""images/D32.png"" style= ""width:200px""alt=""img"">
                                </div>
                            </div>","-186","","0","images/D32.png","","","","[""Coarse"",""Fine""]"
"","","","","","html-slider-response","104","264964","0.0-100.0","9sgugcme03","NaN","<div style=""width:500px;"">
                                <p style=""font-size:50px; font-weight:bold;""
                                ></p>
                                <div style=""width:240px; margin: auto;"">
                                    <img src=""images/D53.png"" style= ""width:200px""alt=""img"">
                                </div>
                            </div>","-174","","0","images/D53.png","","","","[""Coarse"",""Fine""]"
"","","","","","html-slider-response","105","267814","0.0-101.0","9sgugcme03","NaN","<div style=""width:500px;"">
                                <p style=""font-size:50px; font-weight:bold;""
                                ></p>
                                <div style=""width:240px; margin: auto;"">
                                    <img src=""images/D102.png"" style= ""width:200px""alt=""img"">
                                </div>
                            </div>","-87","","0","images/D102.png","","","","[""Coarse"",""Fine""]"
"","","","","","html-slider-response","106","269845","0.0-102.0","9sgugcme03","NaN","<div style=""width:500px;"">
                                <p style=""font-size:50px; font-weight:bold;""
                                ></p>
                                <div style=""width:240px; margin: auto;"">
                                    <img src=""images/D16.png"" style= ""width:200px""alt=""img"">
                                </div>
                            </div>","200","","0","images/D16.png","","","","[""Coarse"",""Fine""]"
"","","","","","html-slider-response","107","271631","0.0-103.0","9sgugcme03","NaN","<div style=""width:500px;"">
                                <p style=""font-size:50px; font-weight:bold;""
                                ></p>
                                <div style=""width:240px; margin: auto;"">
                                    <img src=""images/D84.png"" style= ""width:200px""alt=""img"">
                                </div>
                            </div>","-144","","0","images/D84.png","","","","[""Coarse"",""Fine""]"
"","","","","","html-slider-response","108","273411","0.0-104.0","9sgugcme03","NaN","<div style=""width:500px;"">
                                <p style=""font-size:50px; font-weight:bold;""
                                ></p>
                                <div style=""width:240px; margin: auto;"">
                                    <img src=""images/D24.png"" style= ""width:200px""alt=""img"">
                                </div>
                            </div>","-168","","0","images/D24.png","","","","[""Coarse"",""Fine""]"
"","","","","","html-slider-response","109","275228","0.0-105.0","9sgugcme03","NaN","<div style=""width:500px;"">
                                <p style=""font-size:50px; font-weight:bold;""
                                ></p>
                                <div style=""width:240px; margin: auto;"">
                                    <img src=""images/D51.png"" style= ""width:200px""alt=""img"">
                                </div>
                            </div>","-162","","0","images/D51.png","","","","[""Coarse"",""Fine""]"
"","","","","","html-slider-response","110","277130","0.0-106.0","9sgugcme03","NaN","<div style=""width:500px;"">
                                <p style=""font-size:50px; font-weight:bold;""
                                ></p>
                                <div style=""width:240px; margin: auto;"">
                                    <img src=""images/D105.png"" style= ""width:200px""alt=""img"">
                                </div>
                            </div>","-122","","0","images/D105.png","","","","[""Coarse"",""Fine""]"
"","","","","","html-slider-response","111","278864","0.0-107.0","9sgugcme03","NaN","<div style=""width:500px;"">
                                <p style=""font-size:50px; font-weight:bold;""
                                ></p>
                                <div style=""width:240px; margin: auto;"">
                                    <img src=""images/D48.png"" style= ""width:200px""alt=""img"">
                                </div>
                            </div>","-100","","0","images/D48.png","","","","[""Coarse"",""Fine""]"
"","","","","","html-slider-response","112","280362","0.0-108.0","9sgugcme03","NaN","<div style=""width:500px;"">
                                <p style=""font-size:50px; font-weight:bold;""
                                ></p>
                                <div style=""width:240px; margin: auto;"">
                                    <img src=""images/D92.png"" style= ""width:200px""alt=""img"">
                                </div>
                            </div>","-96","","0","images/D92.png","","","","[""Coarse"",""Fine""]"
"","","","","","html-slider-response","113","281895","0.0-109.0","9sgugcme03","NaN","<div style=""width:500px;"">
                                <p style=""font-size:50px; font-weight:bold;""
                                ></p>
                                <div style=""width:240px; margin: auto;"">
                                    <img src=""images/D1.png"" style= ""width:200px""alt=""img"">
                                </div>
                            </div>","200","","0","images/D1.png","","","","[""Coarse"",""Fine""]"
"","","","","","html-slider-response","114","283962","0.0-110.0","9sgugcme03","NaN","<div style=""width:500px;"">
                                <p style=""font-size:50px; font-weight:bold;""
                                ></p>
                                <div style=""width:240px; margin: auto;"">
                                    <img src=""images/D74.png"" style= ""width:200px""alt=""img"">
                                </div>
                            </div>","-139","","0","images/D74.png","","","","[""Coarse"",""Fine""]"
"","","","","","html-slider-response","115","285979","0.0-111.0","9sgugcme03","NaN","<div style=""width:500px;"">
                                <p style=""font-size:50px; font-weight:bold;""
                                ></p>
                                <div style=""width:240px; margin: auto;"">
                                    <img src=""images/D87.png"" style= ""width:200px""alt=""img"">
                                </div>
                            </div>","-133","","0","images/D87.png","","","","[""Coarse"",""Fine""]"
"","","","","","html-slider-response","116","288395","0.0-112.0","9sgugcme03","NaN","<div style=""width:500px;"">
                                <p style=""font-size:50px; font-weight:bold;""
                                ></p>
                                <div style=""width:240px; margin: auto;"">
                                    <img src=""images/D68.png"" style= ""width:200px""alt=""img"">
                                </div>
                            </div>","-152","","0","images/D68.png","","","","[""Coarse"",""Fine""]"
"","","","","","html-slider-response","117","290200","0.0-113.0","9sgugcme03","NaN","<div style=""width:500px;"">
                                <p style=""font-size:50px; font-weight:bold;""
                                ></p>
                                <div style=""width:240px; margin: auto;"">
                                    <img src=""images/D85.png"" style= ""width:200px""alt=""img"">
                                </div>
                            </div>","-124","","0","images/D85.png","","","","[""Coarse"",""Fine""]"
"","","","","","html-slider-response","118","292064","0.0-114.0","9sgugcme03","NaN","<div style=""width:500px;"">
                                <p style=""font-size:50px; font-weight:bold;""
                                ></p>
                                <div style=""width:240px; margin: auto;"">
                                    <img src=""images/D21.png"" style= ""width:200px""alt=""img"">
                                </div>
                            </div>","200","","0","images/D21.png","","","","[""Coarse"",""Fine""]"
"","","","","","html-slider-response","119","297761","0.0-115.0","9sgugcme03","NaN","<div style=""width:500px;"">
                                <p style=""font-size:50px; font-weight:bold;""
                                ></p>
                                <div style=""width:240px; margin: auto;"">
                                    <img src=""images/D57.png"" style= ""width:200px""alt=""img"">
                                </div>
                            </div>","-167","","0","images/D57.png","","","","[""Coarse"",""Fine""]"
"","","","","","html-slider-response","120","300111","0.0-116.0","9sgugcme03","NaN","<div style=""width:500px;"">
                                <p style=""font-size:50px; font-weight:bold;""
                                ></p>
                                <div style=""width:240px; margin: auto;"">
                                    <img src=""images/D29.png"" style= ""width:200px""alt=""img"">
                                </div>
                            </div>","-200","","0","images/D29.png","","","","[""Coarse"",""Fine""]"
"","","","","","html-slider-response","121","302245","0.0-117.0","9sgugcme03","NaN","<div style=""width:500px;"">
                                <p style=""font-size:50px; font-weight:bold;""
                                ></p>
                                <div style=""width:240px; margin: auto;"">
                                    <img src=""images/D79.png"" style= ""width:200px""alt=""img"">
                                </div>
                            </div>","-114","","0","images/D79.png","","","","[""Coarse"",""Fine""]"
"","","","","","html-slider-response","122","303695","0.0-118.0","9sgugcme03","NaN","<div style=""width:500px;"">
                                <p style=""font-size:50px; font-weight:bold;""
                                ></p>
                                <div style=""width:240px; margin: auto;"">
                                    <img src=""images/D78.png"" style= ""width:200px""alt=""img"">
                                </div>
                            </div>","200","","0","images/D78.png","","","","[""Coarse"",""Fine""]"
"","","","","","html-slider-response","123","305113","0.0-119.0","9sgugcme03","NaN","<div style=""width:500px;"">
                                <p style=""font-size:50px; font-weight:bold;""
                                ></p>
                                <div style=""width:240px; margin: auto;"">
                                    <img src=""images/D14.png"" style= ""width:200px""alt=""img"">
                                </div>
                            </div>","200","","0","images/D14.png","","","","[""Coarse"",""Fine""]"
"","","","","","html-slider-response","124","306727","0.0-120.0","9sgugcme03","NaN","<div style=""width:500px;"">
                                <p style=""font-size:50px; font-weight:bold;""
                                ></p>
                                <div style=""width:240px; margin: auto;"">
                                    <img src=""images/D52.png"" style= ""width:200px""alt=""img"">
                                </div>
                            </div>","200","","0","images/D52.png","","","","[""Coarse"",""Fine""]"
"","","","","","html-slider-response","125","308530","0.0-121.0","9sgugcme03","NaN","<div style=""width:500px;"">
                                <p style=""font-size:50px; font-weight:bold;""
                                ></p>
                                <div style=""width:240px; margin: auto;"">
                                    <img src=""images/D35.png"" style= ""width:200px""alt=""img"">
                                </div>
                            </div>","-148","","0","images/D35.png","","","","[""Coarse"",""Fine""]"
"","","","","","html-slider-response","126","312345","0.0-122.0","9sgugcme03","NaN","<div style=""width:500px;"">
                                <p style=""font-size:50px; font-weight:bold;""
                                ></p>
                                <div style=""width:240px; margin: auto;"">
                                    <img src=""images/D111.png"" style= ""width:200px""alt=""img"">
                                </div>
                            </div>","-162","","0","images/D111.png","","","","[""Coarse"",""Fine""]"
"","","","","","html-slider-response","127","313779","0.0-123.0","9sgugcme03","NaN","<div style=""width:500px;"">
                                <p style=""font-size:50px; font-weight:bold;""
                                ></p>
                                <div style=""width:240px; margin: auto;"">
                                    <img src=""images/D64.png"" style= ""width:200px""alt=""img"">
                                </div>
                            </div>","-121","","0","images/D64.png","","","","[""Coarse"",""Fine""]"
"","","","","","html-slider-response","128","316829","0.0-124.0","9sgugcme03","NaN","<div style=""width:500px;"">
                                <p style=""font-size:50px; font-weight:bold;""
                                ></p>
                                <div style=""width:240px; margin: auto;"">
                                    <img src=""images/D94.png"" style= ""width:200px""alt=""img"">
                                </div>
                            </div>","200","","0","images/D94.png","","","","[""Coarse"",""Fine""]"
"","","","","","html-slider-response","129","318695","0.0-125.0","9sgugcme03","NaN","<div style=""width:500px;"">
                                <p style=""font-size:50px; font-weight:bold;""
                                ></p>
                                <div style=""width:240px; margin: auto;"">
                                    <img src=""images/D18.png"" style= ""width:200px""alt=""img"">
                                </div>
                            </div>","-134","","0","images/D18.png","","","","[""Coarse"",""Fine""]"
"","","","","","html-slider-response","130","321013","0.0-126.0","9sgugcme03","NaN","<div style=""width:500px;"">
                                <p style=""font-size:50px; font-weight:bold;""
                                ></p>
                                <div style=""width:240px; margin: auto;"">
                                    <img src=""images/D36.png"" style= ""width:200px""alt=""img"">
                                </div>
                            </div>","-116","","0","images/D36.png","","","","[""Coarse"",""Fine""]"
"","","","","","html-slider-response","131","322396","0.0-127.0","9sgugcme03","NaN","<div style=""width:500px;"">
                                <p style=""font-size:50px; font-weight:bold;""
                                ></p>
                                <div style=""width:240px; margin: auto;"">
                                    <img src=""images/D96.png"" style= ""width:200px""alt=""img"">
                                </div>
                            </div>","200","","0","images/D96.png","","","","[""Coarse"",""Fine""]"
"","","","","","html-slider-response","132","323945","0.0-128.0","9sgugcme03","NaN","<div style=""width:500px;"">
                                <p style=""font-size:50px; font-weight:bold;""
                                ></p>
                                <div style=""width:240px; margin: auto;"">
                                    <img src=""images/D9.png"" style= ""width:200px""alt=""img"">
                                </div>
                            </div>","-176","","0","images/D9.png","","","","[""Coarse"",""Fine""]"
"","","","","","html-slider-response","133","327645","0.0-129.0","9sgugcme03","NaN","<div style=""width:500px;"">
                                <p style=""font-size:50px; font-weight:bold;""
                                ></p>
                                <div style=""width:240px; margin: auto;"">
                                    <img src=""images/D3.png"" style= ""width:200px""alt=""img"">
                                </div>
                            </div>","25","","0","images/D3.png","","","","[""Coarse"",""Fine""]"
"","","","","","html-slider-response","134","328962","0.0-130.0","9sgugcme03","NaN","<div style=""width:500px;"">
                                <p style=""font-size:50px; font-weight:bold;""
                                ></p>
                                <div style=""width:240px; margin: auto;"">
                                    <img src=""images/D106.png"" style= ""width:200px""alt=""img"">
                                </div>
                            </div>","-70","","0","images/D106.png","","","","[""Coarse"",""Fine""]"
"","","","","","html-slider-response","135","330549","0.0-131.0","9sgugcme03","NaN","<div style=""width:500px;"">
                                <p style=""font-size:50px; font-weight:bold;""
                                ></p>
                                <div style=""width:240px; margin: auto;"">
                                    <img src=""images/D47.png"" style= ""width:200px""alt=""img"">
                                </div>
                            </div>","-102","","0","images/D47.png","","","","[""Coarse"",""Fine""]"
"","","","","","html-slider-response","136","332447","0.0-132.0","9sgugcme03","NaN","<div style=""width:500px;"">
                                <p style=""font-size:50px; font-weight:bold;""
                                ></p>
                                <div style=""width:240px; margin: auto;"">
                                    <img src=""images/D20.png"" style= ""width:200px""alt=""img"">
                                </div>
                            </div>","-131","","0","images/D20.png","","","","[""Coarse"",""Fine""]"
"","","","","","html-slider-response","137","334080","0.0-133.0","9sgugcme03","NaN","<div style=""width:500px;"">
                                <p style=""font-size:50px; font-weight:bold;""
                                ></p>
                                <div style=""width:240px; margin: auto;"">
                                    <img src=""images/D46.png"" style= ""width:200px""alt=""img"">
                                </div>
                            </div>","-121","","0","images/D46.png","","","","[""Coarse"",""Fine""]"
"","","","","","html-slider-response","138","335596","0.0-134.0","9sgugcme03","NaN","<div style=""width:500px;"">
                                <p style=""font-size:50px; font-weight:bold;""
                                ></p>
                                <div style=""width:240px; margin: auto;"">
                                    <img src=""images/D34.png"" style= ""width:200px""alt=""img"">
                                </div>
                            </div>","-122","","0","images/D34.png","","","","[""Coarse"",""Fine""]"
"","","","","","html-slider-response","139","336947","0.0-135.0","9sgugcme03","NaN","<div style=""width:500px;"">
                                <p style=""font-size:50px; font-weight:bold;""
                                ></p>
                                <div style=""width:240px; margin: auto;"">
                                    <img src=""images/D55.png"" style= ""width:200px""alt=""img"">
                                </div>
                            </div>","-88","","0","images/D55.png","","","","[""Coarse"",""Fine""]"
"","","","","","html-slider-response","140","338262","0.0-136.0","9sgugcme03","NaN","<div style=""width:500px;"">
                                <p style=""font-size:50px; font-weight:bold;""
                                ></p>
                                <div style=""width:240px; margin: auto;"">
                                    <img src=""images/D11.png"" style= ""width:200px""alt=""img"">
                                </div>
                            </div>","-116","","0","images/D11.png","","","","[""Coarse"",""Fine""]"
"","","","","","html-slider-response","141","339545","0.0-137.0","9sgugcme03","NaN","<div style=""width:500px;"">
                                <p style=""font-size:50px; font-weight:bold;""
                                ></p>
                                <div style=""width:240px; margin: auto;"">
                                    <img src=""images/D65.png"" style= ""width:200px""alt=""img"">
                                </div>
                            </div>","-136","","0","images/D65.png","","","","[""Coarse"",""Fine""]"
"","","","","","html-slider-response","142","340979","0.0-138.0","9sgugcme03","NaN","<div style=""width:500px;"">
                                <p style=""font-size:50px; font-weight:bold;""
                                ></p>
                                <div style=""width:240px; margin: auto;"">
                                    <img src=""images/D8.png"" style= ""width:200px""alt=""img"">
                                </div>
                            </div>","-126","","0","images/D8.png","","","","[""Coarse"",""Fine""]"
"","","","","","html-slider-response","143","342229","0.0-139.0","9sgugcme03","NaN","<div style=""width:500px;"">
                                <p style=""font-size:50px; font-weight:bold;""
                                ></p>
                                <div style=""width:240px; margin: auto;"">
                                    <img src=""images/D83.png"" style= ""width:200px""alt=""img"">
                                </div>
                            </div>","-102","","0","images/D83.png","","","","[""Coarse"",""Fine""]"
"","","","","","html-button-response","144","343601","0.0-140.0","9sgugcme03","870","You have completed the second block of trials out of six. Please click 'Continue' when you are ready proceed.","0","","","","","","",""
"","","","","","html-button-response","145","344668","0.0-141.0","9sgugcme03","1066","In the following trials, you will be asked to rate textures on the scale <b>Blobby</b> versus <b>Stripey</b>. Please click 'Continue' when you are ready proceed.","0","","","","","","",""
"","","","","","html-slider-response","146","345811","0.0-142.0","9sgugcme03","NaN","<div style=""width:500px;"">
                                <p style=""font-size:50px; font-weight:bold;""
                                ></p>
                                <div style=""width:240px; margin: auto;"">
                                    <img src=""images/D103.png"" style= ""width:200px""alt=""img"">
                                </div>
                            </div>","106","","0","images/D103.png","","","","[""Blobby"",""Stripey""]"
"","","","","","html-slider-response","147","347179","0.0-143.0","9sgugcme03","NaN","<div style=""width:500px;"">
                                <p style=""font-size:50px; font-weight:bold;""
                                ></p>
                                <div style=""width:240px; margin: auto;"">
                                    <img src=""images/D49.png"" style= ""width:200px""alt=""img"">
                                </div>
                            </div>","155","","0","images/D49.png","","","","[""Blobby"",""Stripey""]"
"","","","","","html-slider-response","148","348428","0.0-144.0","9sgugcme03","NaN","<div style=""width:500px;"">
                                <p style=""font-size:50px; font-weight:bold;""
                                ></p>
                                <div style=""width:240px; margin: auto;"">
                                    <img src=""images/D6.png"" style= ""width:200px""alt=""img"">
                                </div>
                            </div>","138","","0","images/D6.png","","","","[""Blobby"",""Stripey""]"
"","","","","","html-slider-response","149","349962","0.0-145.0","9sgugcme03","NaN","<div style=""width:500px;"">
                                <p style=""font-size:50px; font-weight:bold;""
                                ></p>
                                <div style=""width:240px; margin: auto;"">
                                    <img src=""images/D22.png"" style= ""width:200px""alt=""img"">
                                </div>
                            </div>","-126","","0","images/D22.png","","","","[""Blobby"",""Stripey""]"
"","","","","","html-slider-response","150","351311","0.0-146.0","9sgugcme03","NaN","<div style=""width:500px;"">
                                <p style=""font-size:50px; font-weight:bold;""
                                ></p>
                                <div style=""width:240px; margin: auto;"">
                                    <img src=""images/D4.png"" style= ""width:200px""alt=""img"">
                                </div>
                            </div>","-114","","0","images/D4.png","","","","[""Blobby"",""Stripey""]"
"","","","","","html-slider-response","151","352912","0.0-147.0","9sgugcme03","NaN","<div style=""width:500px;"">
                                <p style=""font-size:50px; font-weight:bold;""
                                ></p>
                                <div style=""width:240px; margin: auto;"">
                                    <img src=""images/D95.png"" style= ""width:200px""alt=""img"">
                                </div>
                            </div>","115","","0","images/D95.png","","","","[""Blobby"",""Stripey""]"
"","","","","","html-slider-response","152","354245","0.0-148.0","9sgugcme03","NaN","<div style=""width:500px;"">
                                <p style=""font-size:50px; font-weight:bold;""
                                ></p>
                                <div style=""width:240px; margin: auto;"">
                                    <img src=""images/D75.png"" style= ""width:200px""alt=""img"">
                                </div>
                            </div>","-102","","0","images/D75.png","","","","[""Blobby"",""Stripey""]"
"","","","","","html-slider-response","153","355479","0.0-149.0","9sgugcme03","NaN","<div style=""width:500px;"">
                                <p style=""font-size:50px; font-weight:bold;""
                                ></p>
                                <div style=""width:240px; margin: auto;"">
                                    <img src=""images/D80.png"" style= ""width:200px""alt=""img"">
                                </div>
                            </div>","98","","0","images/D80.png","","","","[""Blobby"",""Stripey""]"
"","","","","","html-slider-response","154","357414","0.0-150.0","9sgugcme03","NaN","<div style=""width:500px;"">
                                <p style=""font-size:50px; font-weight:bold;""
                                ></p>
                                <div style=""width:240px; margin: auto;"">
                                    <img src=""images/D25.png"" style= ""width:200px""alt=""img"">
                                </div>
                            </div>","110","","0","images/D25.png","","","","[""Blobby"",""Stripey""]"
"","","","","","html-slider-response","155","358763","0.0-151.0","9sgugcme03","NaN","<div style=""width:500px;"">
                                <p style=""font-size:50px; font-weight:bold;""
                                ></p>
                                <div style=""width:240px; margin: auto;"">
                                    <img src=""images/D26.png"" style= ""width:200px""alt=""img"">
                                </div>
                            </div>","122","","0","images/D26.png","","","","[""Blobby"",""Stripey""]"
"","","","","","html-slider-response","156","360399","0.0-152.0","9sgugcme03","NaN","<div style=""width:500px;"">
                                <p style=""font-size:50px; font-weight:bold;""
                                ></p>
                                <div style=""width:240px; margin: auto;"">
                                    <img src=""images/D104.png"" style= ""width:200px""alt=""img"">
                                </div>
                            </div>","149","","0","images/D104.png","","","","[""Blobby"",""Stripey""]"
"","","","","","html-slider-response","157","362116","0.0-153.0","9sgugcme03","NaN","<div style=""width:500px;"">
                                <p style=""font-size:50px; font-weight:bold;""
                                ></p>
                                <div style=""width:240px; margin: auto;"">
                                    <img src=""images/D82.png"" style= ""width:200px""alt=""img"">
                                </div>
                            </div>","115","","0","images/D82.png","","","","[""Blobby"",""Stripey""]"
"","","","","","html-slider-response","158","363496","0.0-154.0","9sgugcme03","NaN","<div style=""width:500px;"">
                                <p style=""font-size:50px; font-weight:bold;""
                                ></p>
                                <div style=""width:240px; margin: auto;"">
                                    <img src=""images/D66.png"" style= ""width:200px""alt=""img"">
                                </div>
                            </div>","-159","","0","images/D66.png","","","","[""Blobby"",""Stripey""]"
"","","","","","html-slider-response","159","365812","0.0-155.0","9sgugcme03","NaN","<div style=""width:500px;"">
                                <p style=""font-size:50px; font-weight:bold;""
                                ></p>
                                <div style=""width:240px; margin: auto;"">
                                    <img src=""images/D37.png"" style= ""width:200px""alt=""img"">
                                </div>
                            </div>","-190","","0","images/D37.png","","","","[""Blobby"",""Stripey""]"
"","","","","","html-slider-response","160","368062","0.0-156.0","9sgugcme03","NaN","<div style=""width:500px;"">
                                <p style=""font-size:50px; font-weight:bold;""
                                ></p>
                                <div style=""width:240px; margin: auto;"">
                                    <img src=""images/D81.png"" style= ""width:200px""alt=""img"">
                                </div>
                            </div>","-187","","0","images/D81.png","","","","[""Blobby"",""Stripey""]"
"","","","","","html-slider-response","161","371312","0.0-157.0","9sgugcme03","NaN","<div style=""width:500px;"">
                                <p style=""font-size:50px; font-weight:bold;""
                                ></p>
                                <div style=""width:240px; margin: auto;"">
                                    <img src=""images/D101.png"" style= ""width:200px""alt=""img"">
                                </div>
                            </div>","199","","0","images/D101.png","","","","[""Blobby"",""Stripey""]"
"","","","","","html-slider-response","162","373895","0.0-158.0","9sgugcme03","NaN","<div style=""width:500px;"">
                                <p style=""font-size:50px; font-weight:bold;""
                                ></p>
                                <div style=""width:240px; margin: auto;"">
                                    <img src=""images/D56.png"" style= ""width:200px""alt=""img"">
                                </div>
                            </div>","197","","0","images/D56.png","","","","[""Blobby"",""Stripey""]"
"","","","","","html-slider-response","163","378530","0.0-159.0","9sgugcme03","NaN","<div style=""width:500px;"">
                                <p style=""font-size:50px; font-weight:bold;""
                                ></p>
                                <div style=""width:240px; margin: auto;"">
                                    <img src=""images/D77.png"" style= ""width:200px""alt=""img"">
                                </div>
                            </div>","197","","0","images/D77.png","","","","[""Blobby"",""Stripey""]"
"","","","","","html-slider-response","164","379846","0.0-160.0","9sgugcme03","NaN","<div style=""width:500px;"">
                                <p style=""font-size:50px; font-weight:bold;""
                                ></p>
                                <div style=""width:240px; margin: auto;"">
                                    <img src=""images/D76.png"" style= ""width:200px""alt=""img"">
                                </div>
                            </div>","197","","0","images/D76.png","","","","[""Blobby"",""Stripey""]"
"","","","","","html-slider-response","165","382110","0.0-161.0","9sgugcme03","NaN","<div style=""width:500px;"">
                                <p style=""font-size:50px; font-weight:bold;""
                                ></p>
                                <div style=""width:240px; margin: auto;"">
                                    <img src=""images/D19.png"" style= ""width:200px""alt=""img"">
                                </div>
                            </div>","-169","","0","images/D19.png","","","","[""Blobby"",""Stripey""]"
"","","","","","html-slider-response","166","383814","0.0-162.0","9sgugcme03","NaN","<div style=""width:500px;"">
                                <p style=""font-size:50px; font-weight:bold;""
                                ></p>
                                <div style=""width:240px; margin: auto;"">
                                    <img src=""images/D17.png"" style= ""width:200px""alt=""img"">
                                </div>
                            </div>","182","","0","images/D17.png","","","","[""Blobby"",""Stripey""]"
"","","","","","html-slider-response","167","385746","0.0-163.0","9sgugcme03","NaN","<div style=""width:500px;"">
                                <p style=""font-size:50px; font-weight:bold;""
                                ></p>
                                <div style=""width:240px; margin: auto;"">
                                    <img src=""images/D32.png"" style= ""width:200px""alt=""img"">
                                </div>
                            </div>","-147","","0","images/D32.png","","","","[""Blobby"",""Stripey""]"
"","","","","","html-slider-response","168","387829","0.0-164.0","9sgugcme03","NaN","<div style=""width:500px;"">
                                <p style=""font-size:50px; font-weight:bold;""
                                ></p>
                                <div style=""width:240px; margin: auto;"">
                                    <img src=""images/D53.png"" style= ""width:200px""alt=""img"">
                                </div>
                            </div>","195","","0","images/D53.png","","","","[""Blobby"",""Stripey""]"
"","","","","","html-slider-response","169","389415","0.0-165.0","9sgugcme03","NaN","<div style=""width:500px;"">
                                <p style=""font-size:50px; font-weight:bold;""
                                ></p>
                                <div style=""width:240px; margin: auto;"">
                                    <img src=""images/D102.png"" style= ""width:200px""alt=""img"">
                                </div>
                            </div>","-196","","0","images/D102.png","","","","[""Blobby"",""Stripey""]"
"","","","","","html-slider-response","170","392563","0.0-166.0","9sgugcme03","NaN","<div style=""width:500px;"">
                                <p style=""font-size:50px; font-weight:bold;""
                                ></p>
                                <div style=""width:240px; margin: auto;"">
                                    <img src=""images/D16.png"" style= ""width:200px""alt=""img"">
                                </div>
                            </div>","200","","0","images/D16.png","","","","[""Blobby"",""Stripey""]"
"","","","","","html-slider-response","171","394545","0.0-167.0","9sgugcme03","NaN","<div style=""width:500px;"">
                                <p style=""font-size:50px; font-weight:bold;""
                                ></p>
                                <div style=""width:240px; margin: auto;"">
                                    <img src=""images/D84.png"" style= ""width:200px""alt=""img"">
                                </div>
                            </div>","-195","","0","images/D84.png","","","","[""Blobby"",""Stripey""]"
"","","","","","html-slider-response","172","396316","0.0-168.0","9sgugcme03","NaN","<div style=""width:500px;"">
                                <p style=""font-size:50px; font-weight:bold;""
                                ></p>
                                <div style=""width:240px; margin: auto;"">
                                    <img src=""images/D24.png"" style= ""width:200px""alt=""img"">
                                </div>
                            </div>","-177","","0","images/D24.png","","","","[""Blobby"",""Stripey""]"
"","","","","","html-slider-response","173","399246","0.0-169.0","9sgugcme03","NaN","<div style=""width:500px;"">
                                <p style=""font-size:50px; font-weight:bold;""
                                ></p>
                                <div style=""width:240px; margin: auto;"">
                                    <img src=""images/D51.png"" style= ""width:200px""alt=""img"">
                                </div>
                            </div>","197","","0","images/D51.png","","","","[""Blobby"",""Stripey""]"
"","","","","","html-slider-response","174","400462","0.0-170.0","9sgugcme03","NaN","<div style=""width:500px;"">
                                <p style=""font-size:50px; font-weight:bold;""
                                ></p>
                                <div style=""width:240px; margin: auto;"">
                                    <img src=""images/D105.png"" style= ""width:200px""alt=""img"">
                                </div>
                            </div>","197","","0","images/D105.png","","","","[""Blobby"",""Stripey""]"
"","","","","","html-slider-response","175","402396","0.0-171.0","9sgugcme03","NaN","<div style=""width:500px;"">
                                <p style=""font-size:50px; font-weight:bold;""
                                ></p>
                                <div style=""width:240px; margin: auto;"">
                                    <img src=""images/D48.png"" style= ""width:200px""alt=""img"">
                                </div>
                            </div>","-184","","0","images/D48.png","","","","[""Blobby"",""Stripey""]"
"","","","","","html-slider-response","176","404762","0.0-172.0","9sgugcme03","NaN","<div style=""width:500px;"">
                                <p style=""font-size:50px; font-weight:bold;""
                                ></p>
                                <div style=""width:240px; margin: auto;"">
                                    <img src=""images/D92.png"" style= ""width:200px""alt=""img"">
                                </div>
                            </div>","-196","","0","images/D92.png","","","","[""Blobby"",""Stripey""]"
"","","","","","html-slider-response","177","407012","0.0-173.0","9sgugcme03","NaN","<div style=""width:500px;"">
                                <p style=""font-size:50px; font-weight:bold;""
                                ></p>
                                <div style=""width:240px; margin: auto;"">
                                    <img src=""images/D1.png"" style= ""width:200px""alt=""img"">
                                </div>
                            </div>","198","","0","images/D1.png","","","","[""Blobby"",""Stripey""]"
"","","","","","html-slider-response","178","409096","0.0-174.0","9sgugcme03","NaN","<div style=""width:500px;"">
                                <p style=""font-size:50px; font-weight:bold;""
                                ></p>
                                <div style=""width:240px; margin: auto;"">
                                    <img src=""images/D74.png"" style= ""width:200px""alt=""img"">
                                </div>
                            </div>","-193","","0","images/D74.png","","","","[""Blobby"",""Stripey""]"
"","","","","","html-slider-response","179","411412","0.0-175.0","9sgugcme03","NaN","<div style=""width:500px;"">
                                <p style=""font-size:50px; font-weight:bold;""
                                ></p>
                                <div style=""width:240px; margin: auto;"">
                                    <img src=""images/D87.png"" style= ""width:200px""alt=""img"">
                                </div>
                            </div>","-198","","0","images/D87.png","","","","[""Blobby"",""Stripey""]"
"","","","","","html-slider-response","180","413796","0.0-176.0","9sgugcme03","NaN","<div style=""width:500px;"">
                                <p style=""font-size:50px; font-weight:bold;""
                                ></p>
                                <div style=""width:240px; margin: auto;"">
                                    <img src=""images/D68.png"" style= ""width:200px""alt=""img"">
                                </div>
                            </div>","199","","0","images/D68.png","","","","[""Blobby"",""Stripey""]"
"","","","","","html-slider-response","181","415995","0.0-177.0","9sgugcme03","NaN","<div style=""width:500px;"">
                                <p style=""font-size:50px; font-weight:bold;""
                                ></p>
                                <div style=""width:240px; margin: auto;"">
                                    <img src=""images/D85.png"" style= ""width:200px""alt=""img"">
                                </div>
                            </div>","196","","0","images/D85.png","","","","[""Blobby"",""Stripey""]"
"","","","","","html-slider-response","182","417296","0.0-178.0","9sgugcme03","NaN","<div style=""width:500px;"">
                                <p style=""font-size:50px; font-weight:bold;""
                                ></p>
                                <div style=""width:240px; margin: auto;"">
                                    <img src=""images/D21.png"" style= ""width:200px""alt=""img"">
                                </div>
                            </div>","194","","0","images/D21.png","","","","[""Blobby"",""Stripey""]"
"","","","","","html-slider-response","183","419580","0.0-179.0","9sgugcme03","NaN","<div style=""width:500px;"">
                                <p style=""font-size:50px; font-weight:bold;""
                                ></p>
                                <div style=""width:240px; margin: auto;"">
                                    <img src=""images/D57.png"" style= ""width:200px""alt=""img"">
                                </div>
                            </div>","-196","","0","images/D57.png","","","","[""Blobby"",""Stripey""]"
"","","","","","html-slider-response","184","421428","0.0-180.0","9sgugcme03","NaN","<div style=""width:500px;"">
                                <p style=""font-size:50px; font-weight:bold;""
                                ></p>
                                <div style=""width:240px; margin: auto;"">
                                    <img src=""images/D29.png"" style= ""width:200px""alt=""img"">
                                </div>
                            </div>","-197","","0","images/D29.png","","","","[""Blobby"",""Stripey""]"
"","","","","","html-slider-response","185","424094","0.0-181.0","9sgugcme03","NaN","<div style=""width:500px;"">
                                <p style=""font-size:50px; font-weight:bold;""
                                ></p>
                                <div style=""width:240px; margin: auto;"">
                                    <img src=""images/D79.png"" style= ""width:200px""alt=""img"">
                                </div>
                            </div>","200","","0","images/D79.png","","","","[""Blobby"",""Stripey""]"
"","","","","","html-slider-response","186","425245","0.0-182.0","9sgugcme03","NaN","<div style=""width:500px;"">
                                <p style=""font-size:50px; font-weight:bold;""
                                ></p>
                                <div style=""width:240px; margin: auto;"">
                                    <img src=""images/D78.png"" style= ""width:200px""alt=""img"">
                                </div>
                            </div>","199","","0","images/D78.png","","","","[""Blobby"",""Stripey""]"
"","","","","","html-slider-response","187","426379","0.0-183.0","9sgugcme03","NaN","<div style=""width:500px;"">
                                <p style=""font-size:50px; font-weight:bold;""
                                ></p>
                                <div style=""width:240px; margin: auto;"">
                                    <img src=""images/D14.png"" style= ""width:200px""alt=""img"">
                                </div>
