"success","timeout","failed_images","failed_audio","failed_video","trial_type","trial_index","time_elapsed","internal_node_id","subject_id","rt","stimulus","response","question_order","slider_start","image_path","practiceTrial","practiceTrialNum","correct","slider_labels"
"true","false","[]","[]","[]","preload","0","532","0.0-0.0","f1jydzhmr0","","","","","","","","","",""
"","","","","","html-button-response","1","4363","0.0-1.0","f1jydzhmr0","3830","<div style='text-align:center; font-size:20px; line-height:25px; width: 1200px;'>
                Welcome to our experiment! <br>
                <br>At the bottom of this screen, you will see a button that says 'Begin Experiment.
                <br>Please only click that button when you are ready to complete the 25 minute experiment in one sitting. <br>
                <br> Once you click that button, it will not be possible to restart the experiment. <br><br>","0","","","","","","",""
"true","","","","","fullscreen","2","6483","0.0-2.0","f1jydzhmr0","1117","","","","","","","","",""
"","","","","","survey-multi-select","3","51330","0.0-3.0","f1jydzhmr0","44843","","{""Consent"":[""<strong>I consent</strong>""]}","[0]","","","","","",""
"","","","","","html-button-response","4","52729","0.0-4.0","f1jydzhmr0","1396","Welcome! <p> This experiment involves two parts: demographic information, followed by the experimental task.<p> It will take about 25 minutes to complete both parts.","0","","","","","","",""
"","","","","","survey-text","5","63814","0.0-5.0","f1jydzhmr0","11083","","{""Age"":""19"",""Gender"":""Female"",""Race/ethnicity"":""White""}","","","","","","",""
"","","","","","html-slider-response","6","89812","0.0-6.0","f1jydzhmr0","25996","
                <div style='text-align:center; height: auto; margin-left=-100px; margin-bottom: -20px; font-size:20px; line-height:5px; width: 1200px;'>
                    <br>During this experiment, you will see a series of textures, one at a time, like the ones below: 
                </div>
                    <br>
                    <br>
                    <img src=""anchoring_visual_textures.png"" alt=""img"" style=""max-width:1200px; margin-left: -10px;"">
                </div>
                <div style=""clear: both;""></div>
                </div>
                    <div style='text-align:center; margin-left=-100px; font-size:20px; line-height:20px; width: 1200px; margin-top: -50px;'>
                    
                    <br> For each texture, you will be asked to rate where you think it falls on each of the response scales with the following endpoints:
                    </div>
                            <div style=""text-align: center; width: 1400px; "">
                                <p style=""font-size:20px; line-height:5px; ""><b>Blobby</b> versus <b>Stripey</b></p>
                                <p style=""font-size:20px; line-height:5px; ""><b>Rounded</b> versus <b>Rectangular</b></p>
                                <p style=""font-size:20px;line-height:5px;""><b>Coarse</b> versus <b>Fine</b></p>
                                <p style=""font-size:20px;line-height:5px; ""><b>Rough</b> versus <b>Smooth</b></p>
                                <p style=""font-size:20px;line-height:5px; ""><b>Random</b> versus <b>Non-Random</b></p>
                                <p style=""font-size:20px;line-height:5px;""><b>Hard</b> versus <b>Soft</b></p>
                            </div>
                            <div style='text-align:center; font-size:20px; line-height:20px; width: 1400px;'>
                    
                    Each trial will include one texture and one response scale. You will be asked to make your rating by sliding the cursor along a slider response scale like the one below.
                    <br><br> Before beginning, please look at the textures and scales. For each scale, think about the texture you associate most with the left endpoint. When you see that texture for that response scale, please click near the left of the scale.
                    <br><br> Now, please think about the texture you associate most with the right endpoint of each scale. When you see that texture for that response scale, please click near the right of the scale. 
                    <br><br> If you think a texture is not strongly associated with either endpoint of the scale, please click near the midpoint of the scale. Please use the full range of the scale. 
                    <br><br> You will be asked to rate each texture for a given scale before moving on to the next scale.
                    <br><br> Please press the 'Continue' button for instructions on how to use the slider.                     <br><br>
                ","-33","","0","visual_textures_anchoring.png","true","","",""
"","","","","","html-button-response","7","97364","0.0-7.0","f1jydzhmr0","7551","<div style=""width:1200px; margin-top:-150px;""><p style=""text-align:center; font-size:24px;"">To move the slider, click and drag your cursor to the location of the scale where you would like to make your rating and then let go. <br><br> When you let go of the slider, your response will be recorded and the next trial will begin. <br><br><br>
                We are interested in your initial impressions of each texture and scale, so please go with your first intuition. <br><br>
                Before you begin the experiment, there will be four training trials for you to practice using the scale. <br><br><br><br></div>
                <div style=""width:1200px;""><p style=""text-align:center; font-size:20px;"">When you are ready to start the training trials, please click ""Continue"".</p></div>","0","","","","","","",""
"","","","","","html-slider-response","8","100123","0.0-8.0-0.0","f1jydzhmr0","NaN","<div style=""width:500px;"">
                                <p style=""font-size:25px;"">Please move the slider all the way to the <br> right endpoint of the scale</p>

                                </div>
                            </div>","200","","0","","true","0","true",""
"","","","","","html-button-response","9","101680","0.0-8.0-1.0","f1jydzhmr0","1054","<p align='center'><b>Good job!</b> Click on 'Continue' to proceed.</p>","0","","","","","","",""
"","","","","","html-slider-response","10","103040","0.0-9.0-0.0","f1jydzhmr0","NaN","<div style=""width:500px;"">
                                <p style=""font-size:25px;"">Please move the slider all the way to the <br> left endpoint of the scale</p>

                                </div>
                            </div>","-200","","0","","true","1","true",""
"","","","","","html-button-response","11","104280","0.0-9.0-1.0","f1jydzhmr0","736","<p align='center'><b>Good job!</b> Click on 'Continue' to proceed.</p>","0","","","","","","",""
"","","","","","html-slider-response","12","108093","0.0-10.0-0.0","f1jydzhmr0","NaN","<div style=""width:500px;"">
                                <p style=""font-size:25px;"">Please move the slider halfway between the center and right endpoint of the scale</p>

                                </div>
                            </div>","110","","0","","true","2","true",""
"","","","","","html-button-response","13","109312","0.0-10.0-1.0","f1jydzhmr0","716","<p align='center'><b>Good job!</b> Click on 'Continue' to proceed.</p>","0","","","","","","",""
"","","","","","html-slider-response","14","111340","0.0-11.0-0.0","f1jydzhmr0","NaN","<div style=""width:500px;"">
                                <p style=""font-size:25px;"">Please move the slider halfway between the center and left endpoint of the scale</p>

                                </div>
                            </div>","-103","","0","","true","3","true",""
"","","","","","html-button-response","15","112545","0.0-11.0-1.0","f1jydzhmr0","702","<p align='center'><b>Good job!</b> Click on 'Continue' to proceed.</p>","0","","","","","","",""
"","","","","","html-button-response","16","114062","0.0-12.0","f1jydzhmr0","1516","<div style=""width:800px; margin-top:-300px;""><p style=""text-align:center; font-size:22px; line-height:25px;""""> Great job! You've completed the practice trials.</div>
                     <div style=""width:800px; margin-top:-20px;""><p style=""text-align:center""><br><br> In the following trials, you will be asked to rate textures on each scale one-by-one. <br> You will be given opportunities to take breaks when you have completed each block of trials. There are six total blocks of trials. <br><br> Please click continue to begin the main task.<br><br><br> </div>","0","","","","","","",""
"","","","","","html-button-response","17","116479","0.0-13.0","f1jydzhmr0","2416","In the following trials, you will be asked to rate textures on the scale <b>Rough</b> versus <b>Smooth</b>. Please click 'Continue' when you are ready proceed.","0","","","","","","",""
"","","","","","html-slider-response","18","118344","0.0-14.0","f1jydzhmr0","NaN","<div style=""width:500px;"">
                                <p style=""font-size:50px; font-weight:bold;""
                                ></p>
                                <div style=""width:240px; margin: auto;"">
                                    <img src=""images/D29.png"" style= ""width:200px""alt=""img"">
                                </div>
                            </div>","-159","","0","images/D29.png","","","","[""Rough"",""Smooth""]"
"","","","","","html-slider-response","19","120489","0.0-15.0","f1jydzhmr0","NaN","<div style=""width:500px;"">
                                <p style=""font-size:50px; font-weight:bold;""
                                ></p>
                                <div style=""width:240px; margin: auto;"">
                                    <img src=""images/D53.png"" style= ""width:200px""alt=""img"">
                                </div>
                            </div>","75","","0","images/D53.png","","","","[""Rough"",""Smooth""]"
"","","","","","html-slider-response","20","122892","0.0-16.0","f1jydzhmr0","NaN","<div style=""width:500px;"">
                                <p style=""font-size:50px; font-weight:bold;""
                                ></p>
                                <div style=""width:240px; margin: auto;"">
                                    <img src=""images/D64.png"" style= ""width:200px""alt=""img"">
                                </div>
                            </div>","-42","","0","images/D64.png","","","","[""Rough"",""Smooth""]"
"","","","","","html-slider-response","21","125757","0.0-17.0","f1jydzhmr0","NaN","<div style=""width:500px;"">
                                <p style=""font-size:50px; font-weight:bold;""
                                ></p>
                                <div style=""width:240px; margin: auto;"">
                                    <img src=""images/D68.png"" style= ""width:200px""alt=""img"">
                                </div>
                            </div>","31","","0","images/D68.png","","","","[""Rough"",""Smooth""]"
"","","","","","html-slider-response","22","127692","0.0-18.0","f1jydzhmr0","NaN","<div style=""width:500px;"">
                                <p style=""font-size:50px; font-weight:bold;""
                                ></p>
                                <div style=""width:240px; margin: auto;"">
                                    <img src=""images/D48.png"" style= ""width:200px""alt=""img"">
                                </div>
                            </div>","44","","0","images/D48.png","","","","[""Rough"",""Smooth""]"
"","","","","","html-slider-response","23","130689","0.0-19.0","f1jydzhmr0","NaN","<div style=""width:500px;"">
                                <p style=""font-size:50px; font-weight:bold;""
                                ></p>
                                <div style=""width:240px; margin: auto;"">
                                    <img src=""images/D34.png"" style= ""width:200px""alt=""img"">
                                </div>
                            </div>","-32","","0","images/D34.png","","","","[""Rough"",""Smooth""]"
"","","","","","html-slider-response","24","133940","0.0-20.0","f1jydzhmr0","NaN","<div style=""width:500px;"">
                                <p style=""font-size:50px; font-weight:bold;""
                                ></p>
                                <div style=""width:240px; margin: auto;"">
                                    <img src=""images/D85.png"" style= ""width:200px""alt=""img"">
                                </div>
                            </div>","30","","0","images/D85.png","","","","[""Rough"",""Smooth""]"
"","","","","","html-slider-response","25","136090","0.0-21.0","f1jydzhmr0","NaN","<div style=""width:500px;"">
                                <p style=""font-size:50px; font-weight:bold;""
                                ></p>
                                <div style=""width:240px; margin: auto;"">
                                    <img src=""images/D4.png"" style= ""width:200px""alt=""img"">
                                </div>
                            </div>","-194","","0","images/D4.png","","","","[""Rough"",""Smooth""]"
"","","","","","html-slider-response","26","138640","0.0-22.0","f1jydzhmr0","NaN","<div style=""width:500px;"">
                                <p style=""font-size:50px; font-weight:bold;""
                                ></p>
                                <div style=""width:240px; margin: auto;"">
                                    <img src=""images/D111.png"" style= ""width:200px""alt=""img"">
                                </div>
                            </div>","-178","","0","images/D111.png","","","","[""Rough"",""Smooth""]"
"","","","","","html-slider-response","27","140525","0.0-23.0","f1jydzhmr0","NaN","<div style=""width:500px;"">
                                <p style=""font-size:50px; font-weight:bold;""
                                ></p>
                                <div style=""width:240px; margin: auto;"">
                                    <img src=""images/D17.png"" style= ""width:200px""alt=""img"">
                                </div>
                            </div>","46","","0","images/D17.png","","","","[""Rough"",""Smooth""]"
"","","","","","html-slider-response","28","142325","0.0-24.0","f1jydzhmr0","NaN","<div style=""width:500px;"">
                                <p style=""font-size:50px; font-weight:bold;""
                                ></p>
                                <div style=""width:240px; margin: auto;"">
                                    <img src=""images/D16.png"" style= ""width:200px""alt=""img"">
                                </div>
                            </div>","128","","0","images/D16.png","","","","[""Rough"",""Smooth""]"
"","","","","","html-slider-response","29","144241","0.0-25.0","f1jydzhmr0","NaN","<div style=""width:500px;"">
                                <p style=""font-size:50px; font-weight:bold;""
                                ></p>
                                <div style=""width:240px; margin: auto;"">
                                    <img src=""images/D105.png"" style= ""width:200px""alt=""img"">
                                </div>
                            </div>","79","","0","images/D105.png","","","","[""Rough"",""Smooth""]"
"","","","","","html-slider-response","30","147026","0.0-26.0","f1jydzhmr0","NaN","<div style=""width:500px;"">
                                <p style=""font-size:50px; font-weight:bold;""
                                ></p>
                                <div style=""width:240px; margin: auto;"">
                                    <img src=""images/D83.png"" style= ""width:200px""alt=""img"">
                                </div>
                            </div>","26","","0","images/D83.png","","","","[""Rough"",""Smooth""]"
"","","","","","html-slider-response","31","149191","0.0-27.0","f1jydzhmr0","NaN","<div style=""width:500px;"">
                                <p style=""font-size:50px; font-weight:bold;""
                                ></p>
                                <div style=""width:240px; margin: auto;"">
                                    <img src=""images/D84.png"" style= ""width:200px""alt=""img"">
                                </div>
                            </div>","-99","","0","images/D84.png","","","","[""Rough"",""Smooth""]"
"","","","","","html-slider-response","32","151640","0.0-28.0","f1jydzhmr0","NaN","<div style=""width:500px;"">
                                <p style=""font-size:50px; font-weight:bold;""
                                ></p>
                                <div style=""width:240px; margin: auto;"">
                                    <img src=""images/D11.png"" style= ""width:200px""alt=""img"">
                                </div>
                            </div>","-31","","0","images/D11.png","","","","[""Rough"",""Smooth""]"
"","","","","","html-slider-response","33","153507","0.0-29.0","f1jydzhmr0","NaN","<div style=""width:500px;"">
                                <p style=""font-size:50px; font-weight:bold;""
                                ></p>
                                <div style=""width:240px; margin: auto;"">
                                    <img src=""images/D9.png"" style= ""width:200px""alt=""img"">
                                </div>
                            </div>","-184","","0","images/D9.png","","","","[""Rough"",""Smooth""]"
"","","","","","html-slider-response","34","156691","0.0-30.0","f1jydzhmr0","NaN","<div style=""width:500px;"">
                                <p style=""font-size:50px; font-weight:bold;""
                                ></p>
                                <div style=""width:240px; margin: auto;"">
                                    <img src=""images/D20.png"" style= ""width:200px""alt=""img"">
                                </div>
                            </div>","-45","","0","images/D20.png","","","","[""Rough"",""Smooth""]"
"","","","","","html-slider-response","35","159191","0.0-31.0","f1jydzhmr0","NaN","<div style=""width:500px;"">
                                <p style=""font-size:50px; font-weight:bold;""
                                ></p>
                                <div style=""width:240px; margin: auto;"">
                                    <img src=""images/D101.png"" style= ""width:200px""alt=""img"">
                                </div>
                            </div>","-84","","0","images/D101.png","","","","[""Rough"",""Smooth""]"
"","","","","","html-slider-response","36","162857","0.0-32.0","f1jydzhmr0","NaN","<div style=""width:500px;"">
                                <p style=""font-size:50px; font-weight:bold;""
                                ></p>
                                <div style=""width:240px; margin: auto;"">
                                    <img src=""images/D37.png"" style= ""width:200px""alt=""img"">
                                </div>
                            </div>","-104","","0","images/D37.png","","","","[""Rough"",""Smooth""]"
"","","","","","html-slider-response","37","165925","0.0-33.0","f1jydzhmr0","NaN","<div style=""width:500px;"">
                                <p style=""font-size:50px; font-weight:bold;""
                                ></p>
                                <div style=""width:240px; margin: auto;"">
                                    <img src=""images/D96.png"" style= ""width:200px""alt=""img"">
                                </div>
                            </div>","-137","","0","images/D96.png","","","","[""Rough"",""Smooth""]"
"","","","","","html-slider-response","38","167957","0.0-34.0","f1jydzhmr0","NaN","<div style=""width:500px;"">
                                <p style=""font-size:50px; font-weight:bold;""
                                ></p>
                                <div style=""width:240px; margin: auto;"">
                                    <img src=""images/D56.png"" style= ""width:200px""alt=""img"">
                                </div>
                            </div>","39","","0","images/D56.png","","","","[""Rough"",""Smooth""]"
"","","","","","html-slider-response","39","171107","0.0-35.0","f1jydzhmr0","NaN","<div style=""width:500px;"">
                                <p style=""font-size:50px; font-weight:bold;""
                                ></p>
                                <div style=""width:240px; margin: auto;"">
                                    <img src=""images/D25.png"" style= ""width:200px""alt=""img"">
                                </div>
                            </div>","-58","","0","images/D25.png","","","","[""Rough"",""Smooth""]"
"","","","","","html-slider-response","40","173657","0.0-36.0","f1jydzhmr0","NaN","<div style=""width:500px;"">
                                <p style=""font-size:50px; font-weight:bold;""
                                ></p>
                                <div style=""width:240px; margin: auto;"">
                                    <img src=""images/D82.png"" style= ""width:200px""alt=""img"">
                                </div>
                            </div>","-43","","0","images/D82.png","","","","[""Rough"",""Smooth""]"
"","","","","","html-slider-response","41","175624","0.0-37.0","f1jydzhmr0","NaN","<div style=""width:500px;"">
                                <p style=""font-size:50px; font-weight:bold;""
                                ></p>
                                <div style=""width:240px; margin: auto;"">
                                    <img src=""images/D6.png"" style= ""width:200px""alt=""img"">
                                </div>
                            </div>","87","","0","images/D6.png","","","","[""Rough"",""Smooth""]"
"","","","","","html-slider-response","42","177858","0.0-38.0","f1jydzhmr0","NaN","<div style=""width:500px;"">
                                <p style=""font-size:50px; font-weight:bold;""
                                ></p>
                                <div style=""width:240px; margin: auto;"">
                                    <img src=""images/D32.png"" style= ""width:200px""alt=""img"">
                                </div>
                            </div>","-185","","0","images/D32.png","","","","[""Rough"",""Smooth""]"
"","","","","","html-slider-response","43","180207","0.0-39.0","f1jydzhmr0","NaN","<div style=""width:500px;"">
                                <p style=""font-size:50px; font-weight:bold;""
                                ></p>
                                <div style=""width:240px; margin: auto;"">
                                    <img src=""images/D103.png"" style= ""width:200px""alt=""img"">
                                </div>
                            </div>","47","","0","images/D103.png","","","","[""Rough"",""Smooth""]"
"","","","","","html-slider-response","44","183323","0.0-40.0","f1jydzhmr0","NaN","<div style=""width:500px;"">
                                <p style=""font-size:50px; font-weight:bold;""
                                ></p>
                                <div style=""width:240px; margin: auto;"">
                                    <img src=""images/D18.png"" style= ""width:200px""alt=""img"">
                                </div>
                            </div>","-53","","0","images/D18.png","","","","[""Rough"",""Smooth""]"
"","","","","","html-slider-response","45","185125","0.0-41.0","f1jydzhmr0","NaN","<div style=""width:500px;"">
                                <p style=""font-size:50px; font-weight:bold;""
                                ></p>
                                <div style=""width:240px; margin: auto;"">
                                    <img src=""images/D24.png"" style= ""width:200px""alt=""img"">
                                </div>
                            </div>","-130","","0","images/D24.png","","","","[""Rough"",""Smooth""]"
"","","","","","html-slider-response","46","187042","0.0-42.0","f1jydzhmr0","NaN","<div style=""width:500px;"">
                                <p style=""font-size:50px; font-weight:bold;""
                                ></p>
                                <div style=""width:240px; margin: auto;"">
                                    <img src=""images/D66.png"" style= ""width:200px""alt=""img"">
                                </div>
                            </div>","-66","","0","images/D66.png","","","","[""Rough"",""Smooth""]"
"","","","","","html-slider-response","47","188856","0.0-43.0","f1jydzhmr0","NaN","<div style=""width:500px;"">
                                <p style=""font-size:50px; font-weight:bold;""
                                ></p>
                                <div style=""width:240px; margin: auto;"">
                                    <img src=""images/D75.png"" style= ""width:200px""alt=""img"">
                                </div>
                            </div>","56","","0","images/D75.png","","","","[""Rough"",""Smooth""]"
"","","","","","html-slider-response","48","193107","0.0-44.0","f1jydzhmr0","NaN","<div style=""width:500px;"">
                                <p style=""font-size:50px; font-weight:bold;""
                                ></p>
                                <div style=""width:240px; margin: auto;"">
                                    <img src=""images/D8.png"" style= ""width:200px""alt=""img"">
                                </div>
                            </div>","66","","0","images/D8.png","","","","[""Rough"",""Smooth""]"
"","","","","","html-slider-response","49","195191","0.0-45.0","f1jydzhmr0","NaN","<div style=""width:500px;"">
                                <p style=""font-size:50px; font-weight:bold;""
                                ></p>
                                <div style=""width:240px; margin: auto;"">
                                    <img src=""images/D22.png"" style= ""width:200px""alt=""img"">
                                </div>
                            </div>","40","","0","images/D22.png","","","","[""Rough"",""Smooth""]"
"","","","","","html-slider-response","50","198690","0.0-46.0","f1jydzhmr0","NaN","<div style=""width:500px;"">
                                <p style=""font-size:50px; font-weight:bold;""
                                ></p>
                                <div style=""width:240px; margin: auto;"">
                                    <img src=""images/D35.png"" style= ""width:200px""alt=""img"">
                                </div>
                            </div>","51","","0","images/D35.png","","","","[""Rough"",""Smooth""]"
"","","","","","html-slider-response","51","201357","0.0-47.0","f1jydzhmr0","NaN","<div style=""width:500px;"">
                                <p style=""font-size:50px; font-weight:bold;""
                                ></p>
                                <div style=""width:240px; margin: auto;"">
                                    <img src=""images/D76.png"" style= ""width:200px""alt=""img"">
                                </div>
                            </div>","86","","0","images/D76.png","","","","[""Rough"",""Smooth""]"
"","","","","","html-slider-response","52","203223","0.0-48.0","f1jydzhmr0","NaN","<div style=""width:500px;"">
                                <p style=""font-size:50px; font-weight:bold;""
                                ></p>
                                <div style=""width:240px; margin: auto;"">
                                    <img src=""images/D94.png"" style= ""width:200px""alt=""img"">
                                </div>
                            </div>","-139","","0","images/D94.png","","","","[""Rough"",""Smooth""]"
"","","","","","html-slider-response","53","205691","0.0-49.0","f1jydzhmr0","NaN","<div style=""width:500px;"">
                                <p style=""font-size:50px; font-weight:bold;""
                                ></p>
                                <div style=""width:240px; margin: auto;"">
                                    <img src=""images/D21.png"" style= ""width:200px""alt=""img"">
                                </div>
                            </div>","37","","0","images/D21.png","","","","[""Rough"",""Smooth""]"
"","","","","","html-slider-response","54","208140","0.0-50.0","f1jydzhmr0","NaN","<div style=""width:500px;"">
                                <p style=""font-size:50px; font-weight:bold;""
                                ></p>
                                <div style=""width:240px; margin: auto;"">
                                    <img src=""images/D57.png"" style= ""width:200px""alt=""img"">
                                </div>
                            </div>","-163","","0","images/D57.png","","","","[""Rough"",""Smooth""]"
"","","","","","html-slider-response","55","210608","0.0-51.0","f1jydzhmr0","NaN","<div style=""width:500px;"">
                                <p style=""font-size:50px; font-weight:bold;""
                                ></p>
                                <div style=""width:240px; margin: auto;"">
                                    <img src=""images/D3.png"" style= ""width:200px""alt=""img"">
                                </div>
                            </div>","46","","0","images/D3.png","","","","[""Rough"",""Smooth""]"
"","","","","","html-slider-response","56","218142","0.0-52.0","f1jydzhmr0","NaN","<div style=""width:500px;"">
                                <p style=""font-size:50px; font-weight:bold;""
                                ></p>
                                <div style=""width:240px; margin: auto;"">
                                    <img src=""images/D51.png"" style= ""width:200px""alt=""img"">
                                </div>
                            </div>","78","","0","images/D51.png","","","","[""Rough"",""Smooth""]"
"","","","","","html-slider-response","57","220209","0.0-53.0","f1jydzhmr0","NaN","<div style=""width:500px;"">
                                <p style=""font-size:50px; font-weight:bold;""
                                ></p>
                                <div style=""width:240px; margin: auto;"">
                                    <img src=""images/D78.png"" style= ""width:200px""alt=""img"">
                                </div>
                            </div>","34","","0","images/D78.png","","","","[""Rough"",""Smooth""]"
"","","","","","html-slider-response","58","222790","0.0-54.0","f1jydzhmr0","NaN","<div style=""width:500px;"">
                                <p style=""font-size:50px; font-weight:bold;""
                                ></p>
                                <div style=""width:240px; margin: auto;"">
                                    <img src=""images/D1.png"" style= ""width:200px""alt=""img"">
                                </div>
                            </div>","-60","","0","images/D1.png","","","","[""Rough"",""Smooth""]"
"","","","","","html-slider-response","59","225041","0.0-55.0","f1jydzhmr0","NaN","<div style=""width:500px;"">
                                <p style=""font-size:50px; font-weight:bold;""
                                ></p>
                                <div style=""width:240px; margin: auto;"">
                                    <img src=""images/D80.png"" style= ""width:200px""alt=""img"">
                                </div>
                            </div>","-162","","0","images/D80.png","","","","[""Rough"",""Smooth""]"
"","","","","","html-slider-response","60","227240","0.0-56.0","f1jydzhmr0","NaN","<div style=""width:500px;"">
                                <p style=""font-size:50px; font-weight:bold;""
                                ></p>
                                <div style=""width:240px; margin: auto;"">
                                    <img src=""images/D36.png"" style= ""width:200px""alt=""img"">
                                </div>
                            </div>","42","","0","images/D36.png","","","","[""Rough"",""Smooth""]"
"","","","","","html-slider-response","61","229558","0.0-57.0","f1jydzhmr0","NaN","<div style=""width:500px;"">
                                <p style=""font-size:50px; font-weight:bold;""
                                ></p>
                                <div style=""width:240px; margin: auto;"">
                                    <img src=""images/D52.png"" style= ""width:200px""alt=""img"">
                                </div>
                            </div>","50","","0","images/D52.png","","","","[""Rough"",""Smooth""]"
"","","","","","html-slider-response","62","231973","0.0-58.0","f1jydzhmr0","NaN","<div style=""width:500px;"">
                                <p style=""font-size:50px; font-weight:bold;""
                                ></p>
                                <div style=""width:240px; margin: auto;"">
                                    <img src=""images/D74.png"" style= ""width:200px""alt=""img"">
                                </div>
                            </div>","46","","0","images/D74.png","","","","[""Rough"",""Smooth""]"
"","","","","","html-slider-response","63","234243","0.0-59.0","f1jydzhmr0","NaN","<div style=""width:500px;"">
                                <p style=""font-size:50px; font-weight:bold;""
                                ></p>
                                <div style=""width:240px; margin: auto;"">
                                    <img src=""images/D95.png"" style= ""width:200px""alt=""img"">
                                </div>
                            </div>","-118","","0","images/D95.png","","","","[""Rough"",""Smooth""]"
"","","","","","html-slider-response","64","236590","0.0-60.0","f1jydzhmr0","NaN","<div style=""width:500px;"">
                                <p style=""font-size:50px; font-weight:bold;""
                                ></p>
                                <div style=""width:240px; margin: auto;"">
                                    <img src=""images/D81.png"" style= ""width:200px""alt=""img"">
                                </div>
                            </div>","-79","","0","images/D81.png","","","","[""Rough"",""Smooth""]"
"","","","","","html-slider-response","65","238490","0.0-61.0","f1jydzhmr0","NaN","<div style=""width:500px;"">
                                <p style=""font-size:50px; font-weight:bold;""
                                ></p>
                                <div style=""width:240px; margin: auto;"">
                                    <img src=""images/D55.png"" style= ""width:200px""alt=""img"">
                                </div>
                            </div>","41","","0","images/D55.png","","","","[""Rough"",""Smooth""]"
"","","","","","html-slider-response","66","241141","0.0-62.0","f1jydzhmr0","NaN","<div style=""width:500px;"">
                                <p style=""font-size:50px; font-weight:bold;""
                                ></p>
                                <div style=""width:240px; margin: auto;"">
                                    <img src=""images/D46.png"" style= ""width:200px""alt=""img"">
                                </div>
                            </div>","134","","0","images/D46.png","","","","[""Rough"",""Smooth""]"
"","","","","","html-slider-response","67","242973","0.0-63.0","f1jydzhmr0","NaN","<div style=""width:500px;"">
                                <p style=""font-size:50px; font-weight:bold;""
                                ></p>
                                <div style=""width:240px; margin: auto;"">
                                    <img src=""images/D14.png"" style= ""width:200px""alt=""img"">
                                </div>
                            </div>","58","","0","images/D14.png","","","","[""Rough"",""Smooth""]"
"","","","","","html-slider-response","68","245541","0.0-64.0","f1jydzhmr0","NaN","<div style=""width:500px;"">
                                <p style=""font-size:50px; font-weight:bold;""
                                ></p>
                                <div style=""width:240px; margin: auto;"">
                                    <img src=""images/D77.png"" style= ""width:200px""alt=""img"">
                                </div>
                            </div>","150","","0","images/D77.png","","","","[""Rough"",""Smooth""]"
"","","","","","html-slider-response","69","247908","0.0-65.0","f1jydzhmr0","NaN","<div style=""width:500px;"">
                                <p style=""font-size:50px; font-weight:bold;""
                                ></p>
                                <div style=""width:240px; margin: auto;"">
                                    <img src=""images/D47.png"" style= ""width:200px""alt=""img"">
                                </div>
                            </div>","39","","0","images/D47.png","","","","[""Rough"",""Smooth""]"
"","","","","","html-slider-response","70","249573","0.0-66.0","f1jydzhmr0","NaN","<div style=""width:500px;"">
                                <p style=""font-size:50px; font-weight:bold;""
                                ></p>
                                <div style=""width:240px; margin: auto;"">
                                    <img src=""images/D102.png"" style= ""width:200px""alt=""img"">
                                </div>
                            </div>","38","","0","images/D102.png","","","","[""Rough"",""Smooth""]"
"","","","","","html-slider-response","71","252425","0.0-67.0","f1jydzhmr0","NaN","<div style=""width:500px;"">
                                <p style=""font-size:50px; font-weight:bold;""
                                ></p>
                                <div style=""width:240px; margin: auto;"">
                                    <img src=""images/D49.png"" style= ""width:200px""alt=""img"">
                                </div>
                            </div>","74","","0","images/D49.png","","","","[""Rough"",""Smooth""]"
"","","","","","html-slider-response","72","255258","0.0-68.0","f1jydzhmr0","NaN","<div style=""width:500px;"">
                                <p style=""font-size:50px; font-weight:bold;""
                                ></p>
                                <div style=""width:240px; margin: auto;"">
                                    <img src=""images/D104.png"" style= ""width:200px""alt=""img"">
                                </div>
                            </div>","96","","0","images/D104.png","","","","[""Rough"",""Smooth""]"
"","","","","","html-slider-response","73","257792","0.0-69.0","f1jydzhmr0","NaN","<div style=""width:500px;"">
                                <p style=""font-size:50px; font-weight:bold;""
                                ></p>
                                <div style=""width:240px; margin: auto;"">
                                    <img src=""images/D65.png"" style= ""width:200px""alt=""img"">
                                </div>
                            </div>","65","","0","images/D65.png","","","","[""Rough"",""Smooth""]"
"","","","","","html-slider-response","74","259710","0.0-70.0","f1jydzhmr0","NaN","<div style=""width:500px;"">
                                <p style=""font-size:50px; font-weight:bold;""
                                ></p>
                                <div style=""width:240px; margin: auto;"">
                                    <img src=""images/D79.png"" style= ""width:200px""alt=""img"">
                                </div>
                            </div>","118","","0","images/D79.png","","","","[""Rough"",""Smooth""]"
"","","","","","html-slider-response","75","262375","0.0-71.0","f1jydzhmr0","NaN","<div style=""width:500px;"">
                                <p style=""font-size:50px; font-weight:bold;""
                                ></p>
                                <div style=""width:240px; margin: auto;"">
                                    <img src=""images/D92.png"" style= ""width:200px""alt=""img"">
                                </div>
                            </div>","-91","","0","images/D92.png","","","","[""Rough"",""Smooth""]"
"","","","","","html-slider-response","76","264474","0.0-72.0","f1jydzhmr0","NaN","<div style=""width:500px;"">
                                <p style=""font-size:50px; font-weight:bold;""
                                ></p>
                                <div style=""width:240px; margin: auto;"">
                                    <img src=""images/D87.png"" style= ""width:200px""alt=""img"">
                                </div>
                            </div>","-58","","0","images/D87.png","","","","[""Rough"",""Smooth""]"
"","","","","","html-slider-response","77","266459","0.0-73.0","f1jydzhmr0","NaN","<div style=""width:500px;"">
                                <p style=""font-size:50px; font-weight:bold;""
                                ></p>
                                <div style=""width:240px; margin: auto;"">
                                    <img src=""images/D26.png"" style= ""width:200px""alt=""img"">
                                </div>
                            </div>","-117","","0","images/D26.png","","","","[""Rough"",""Smooth""]"
"","","","","","html-slider-response","78","268406","0.0-74.0","f1jydzhmr0","NaN","<div style=""width:500px;"">
                                <p style=""font-size:50px; font-weight:bold;""
                                ></p>
                                <div style=""width:240px; margin: auto;"">
                                    <img src=""images/D106.png"" style= ""width:200px""alt=""img"">
                                </div>
                            </div>","67","","0","images/D106.png","","","","[""Rough"",""Smooth""]"
"","","","","","html-slider-response","79","270640","0.0-75.0","f1jydzhmr0","NaN","<div style=""width:500px;"">
                                <p style=""font-size:50px; font-weight:bold;""
                                ></p>
                                <div style=""width:240px; margin: auto;"">
                                    <img src=""images/D19.png"" style= ""width:200px""alt=""img"">
                                </div>
                            </div>","-95","","0","images/D19.png","","","","[""Rough"",""Smooth""]"
"","","","","","html-button-response","80","275246","0.0-76.0","f1jydzhmr0","4104","You have completed the first block of trials out of six. Please click 'Continue' when you are ready proceed.","0","","","","","","",""
"","","","","","html-button-response","81","285829","0.0-77.0","f1jydzhmr0","10582","In the following trials, you will be asked to rate textures on the scale <b>Hard</b> versus <b>Soft</b>. Please click 'Continue' when you are ready proceed.","0","","","","","","",""
"","","","","","html-slider-response","82","288410","0.0-78.0","f1jydzhmr0","NaN","<div style=""width:500px;"">
                                <p style=""font-size:50px; font-weight:bold;""
                                ></p>
                                <div style=""width:240px; margin: auto;"">
                                    <img src=""images/D29.png"" style= ""width:200px""alt=""img"">
                                </div>
                            </div>","-139","","0","images/D29.png","","","","[""Hard"",""Soft""]"
"","","","","","html-slider-response","83","291341","0.0-79.0","f1jydzhmr0","NaN","<div style=""width:500px;"">
                                <p style=""font-size:50px; font-weight:bold;""
                                ></p>
                                <div style=""width:240px; margin: auto;"">
                                    <img src=""images/D53.png"" style= ""width:200px""alt=""img"">
                                </div>
                            </div>","31","","0","images/D53.png","","","","[""Hard"",""Soft""]"
"","","","","","html-slider-response","84","293241","0.0-80.0","f1jydzhmr0","NaN","<div style=""width:500px;"">
                                <p style=""font-size:50px; font-weight:bold;""
                                ></p>
                                <div style=""width:240px; margin: auto;"">
                                    <img src=""images/D64.png"" style= ""width:200px""alt=""img"">
                                </div>
                            </div>","-94","","0","images/D64.png","","","","[""Hard"",""Soft""]"
"","","","","","html-slider-response","85","296574","0.0-81.0","f1jydzhmr0","NaN","<div style=""width:500px;"">
                                <p style=""font-size:50px; font-weight:bold;""
                                ></p>
                                <div style=""width:240px; margin: auto;"">
                                    <img src=""images/D68.png"" style= ""width:200px""alt=""img"">
                                </div>
                            </div>","22","","0","images/D68.png","","","","[""Hard"",""Soft""]"
"","","","","","html-slider-response","86","298157","0.0-82.0","f1jydzhmr0","NaN","<div style=""width:500px;"">
                                <p style=""font-size:50px; font-weight:bold;""
                                ></p>
                                <div style=""width:240px; margin: auto;"">
                                    <img src=""images/D48.png"" style= ""width:200px""alt=""img"">
                                </div>
                            </div>","85","","0","images/D48.png","","","","[""Hard"",""Soft""]"
"","","","","","html-slider-response","87","301258","0.0-83.0","f1jydzhmr0","NaN","<div style=""width:500px;"">
                                <p style=""font-size:50px; font-weight:bold;""
                                ></p>
                                <div style=""width:240px; margin: auto;"">
                                    <img src=""images/D34.png"" style= ""width:200px""alt=""img"">
                                </div>
                            </div>","22","","0","images/D34.png","","","","[""Hard"",""Soft""]"
"","","","","","html-slider-response","88","305057","0.0-84.0","f1jydzhmr0","NaN","<div style=""width:500px;"">
                                <p style=""font-size:50px; font-weight:bold;""
                                ></p>
                                <div style=""width:240px; margin: auto;"">
                                    <img src=""images/D85.png"" style= ""width:200px""alt=""img"">
                                </div>
                            </div>","-23","","0","images/D85.png","","","","[""Hard"",""Soft""]"
"","","","","","html-slider-response","89","306874","0.0-85.0","f1jydzhmr0","NaN","<div style=""width:500px;"">
                                <p style=""font-size:50px; font-weight:bold;""
                                ></p>
                                <div style=""width:240px; margin: auto;"">
                                    <img src=""images/D4.png"" style= ""width:200px""alt=""img"">
                                </div>
                            </div>","-200","","0","images/D4.png","","","","[""Hard"",""Soft""]"
"","","","","","html-slider-response","90","309424","0.0-86.0","f1jydzhmr0","NaN","<div style=""width:500px;"">
                                <p style=""font-size:50px; font-weight:bold;""
                                ></p>
                                <div style=""width:240px; margin: auto;"">
                                    <img src=""images/D111.png"" style= ""width:200px""alt=""img"">
                                </div>
                            </div>","58","","0","images/D111.png","","","","[""Hard"",""Soft""]"
"","","","","","html-slider-response","91","311591","0.0-87.0","f1jydzhmr0","NaN","<div style=""width:500px;"">
                                <p style=""font-size:50px; font-weight:bold;""
                                ></p>
                                <div style=""width:240px; margin: auto;"">
                                    <img src=""images/D17.png"" style= ""width:200px""alt=""img"">
                                </div>
                            </div>","-37","","0","images/D17.png","","","","[""Hard"",""Soft""]"
"","","","","","html-slider-response","92","314657","0.0-88.0","f1jydzhmr0","NaN","<div style=""width:500px;"">
                                <p style=""font-size:50px; font-weight:bold;""
                                ></p>
                                <div style=""width:240px; margin: auto;"">
                                    <img src=""images/D16.png"" style= ""width:200px""alt=""img"">
                                </div>
                            </div>","32","","0","images/D16.png","","","","[""Hard"",""Soft""]"
"","","","","","html-slider-response","93","316825","0.0-89.0","f1jydzhmr0","NaN","<div style=""width:500px;"">
                                <p style=""font-size:50px; font-weight:bold;""
                                ></p>
                                <div style=""width:240px; margin: auto;"">
                                    <img src=""images/D105.png"" style= ""width:200px""alt=""img"">
                                </div>
                            </div>","70","","0","images/D105.png","","","","[""Hard"",""Soft""]"
"","","","","","html-slider-response","94","319141","0.0-90.0","f1jydzhmr0","NaN","<div style=""width:500px;"">
                                <p style=""font-size:50px; font-weight:bold;""
                                ></p>
                                <div style=""width:240px; margin: auto;"">
                                    <img src=""images/D83.png"" style= ""width:200px""alt=""img"">
                                </div>
                            </div>","33","","0","images/D83.png","","","","[""Hard"",""Soft""]"
"","","","","","html-slider-response","95","321273","0.0-91.0","f1jydzhmr0","NaN","<div style=""width:500px;"">
                                <p style=""font-size:50px; font-weight:bold;""
                                ></p>
                                <div style=""width:240px; margin: auto;"">
                                    <img src=""images/D84.png"" style= ""width:200px""alt=""img"">
                                </div>
                            </div>","-146","","0","images/D84.png","","","","[""Hard"",""Soft""]"
"","","","","","html-slider-response","96","324040","0.0-92.0","f1jydzhmr0","NaN","<div style=""width:500px;"">
                                <p style=""font-size:50px; font-weight:bold;""
                                ></p>
                                <div style=""width:240px; margin: auto;"">
                                    <img src=""images/D11.png"" style= ""width:200px""alt=""img"">
                                </div>
                            </div>","-54","","0","images/D11.png","","","","[""Hard"",""Soft""]"
"","","","","","html-slider-response","97","325992","0.0-93.0","f1jydzhmr0","NaN","<div style=""width:500px;"">
                                <p style=""font-size:50px; font-weight:bold;""
                                ></p>
                                <div style=""width:240px; margin: auto;"">
                                    <img src=""images/D9.png"" style= ""width:200px""alt=""img"">
                                </div>
                            </div>","-184","","0","images/D9.png","","","","[""Hard"",""Soft""]"
"","","","","","html-slider-response","98","328792","0.0-94.0","f1jydzhmr0","NaN","<div style=""width:500px;"">
                                <p style=""font-size:50px; font-weight:bold;""
                                ></p>
                                <div style=""width:240px; margin: auto;"">
                                    <img src=""images/D20.png"" style= ""width:200px""alt=""img"">
                                </div>
                            </div>","-50","","0","images/D20.png","","","","[""Hard"",""Soft""]"
"","","","","","html-slider-response","99","334373","0.0-95.0","f1jydzhmr0","NaN","<div style=""width:500px;"">
                                <p style=""font-size:50px; font-weight:bold;""
                                ></p>
                                <div style=""width:240px; margin: auto;"">
                                    <img src=""images/D101.png"" style= ""width:200px""alt=""img"">
                                </div>
                            </div>","-66","","0","images/D101.png","","","","[""Hard"",""Soft""]"
"","","","","","html-slider-response","100","339259","0.0-96.0","f1jydzhmr0","NaN","<div style=""width:500px;"">
                                <p style=""font-size:50px; font-weight:bold;""
                                ></p>
                                <div style=""width:240px; margin: auto;"">
                                    <img src=""images/D37.png"" style= ""width:200px""alt=""img"">
                                </div>
                            </div>","-175","","0","images/D37.png","","","","[""Hard"",""Soft""]"
"","","","","","html-slider-response","101","341190","0.0-97.0","f1jydzhmr0","NaN","<div style=""width:500px;"">
                                <p style=""font-size:50px; font-weight:bold;""
                                ></p>
                                <div style=""width:240px; margin: auto;"">
                                    <img src=""images/D96.png"" style= ""width:200px""alt=""img"">
                                </div>
                            </div>","-200","","0","images/D96.png","","","","[""Hard"",""Soft""]"
"","","","","","html-slider-response","102","343310","0.0-98.0","f1jydzhmr0","NaN","<div style=""width:500px;"">
                                <p style=""font-size:50px; font-weight:bold;""
                                ></p>
                                <div style=""width:240px; margin: auto;"">
                                    <img src=""images/D56.png"" style= ""width:200px""alt=""img"">
                                </div>
                            </div>","-74","","0","images/D56.png","","","","[""Hard"",""Soft""]"
"","","","","","html-slider-response","103","345092","0.0-99.0","f1jydzhmr0","NaN","<div style=""width:500px;"">
                                <p style=""font-size:50px; font-weight:bold;""
                                ></p>
                                <div style=""width:240px; margin: auto;"">
                                    <img src=""images/D25.png"" style= ""width:200px""alt=""img"">
                                </div>
                            </div>","-200","","0","images/D25.png","","","","[""Hard"",""Soft""]"
"","","","","","html-slider-response","104","347641","0.0-100.0","f1jydzhmr0","NaN","<div style=""width:500px;"">
                                <p style=""font-size:50px; font-weight:bold;""
                                ></p>
                                <div style=""width:240px; margin: auto;"">
                                    <img src=""images/D82.png"" style= ""width:200px""alt=""img"">
                                </div>
                            </div>","-59","","0","images/D82.png","","","","[""Hard"",""Soft""]"
"","","","","","html-slider-response","105","349808","0.0-101.0","f1jydzhmr0","NaN","<div style=""width:500px;"">
                                <p style=""font-size:50px; font-weight:bold;""
                                ></p>
                                <div style=""width:240px; margin: auto;"">
                                    <img src=""images/D6.png"" style= ""width:200px""alt=""img"">
                                </div>
                            </div>","70","","0","images/D6.png","","","","[""Hard"",""Soft""]"
"","","","","","html-slider-response","106","351842","0.0-102.0","f1jydzhmr0","NaN","<div style=""width:500px;"">
                                <p style=""font-size:50px; font-weight:bold;""
                                ></p>
                                <div style=""width:240px; margin: auto;"">
                                    <img src=""images/D32.png"" style= ""width:200px""alt=""img"">
                                </div>
                            </div>","-200","","0","images/D32.png","","","","[""Hard"",""Soft""]"
"","","","","","html-slider-response","107","354258","0.0-103.0","f1jydzhmr0","NaN","<div style=""width:500px;"">
                                <p style=""font-size:50px; font-weight:bold;""
                                ></p>
                                <div style=""width:240px; margin: auto;"">
                                    <img src=""images/D103.png"" style= ""width:200px""alt=""img"">
                                </div>
                            </div>","52","","0","images/D103.png","","","","[""Hard"",""Soft""]"
"","","","","","html-slider-response","108","356608","0.0-104.0","f1jydzhmr0","NaN","<div style=""width:500px;"">
                                <p style=""font-size:50px; font-weight:bold;""
                                ></p>
                                <div style=""width:240px; margin: auto;"">
                                    <img src=""images/D18.png"" style= ""width:200px""alt=""img"">
                                </div>
                            </div>","-62","","0","images/D18.png","","","","[""Hard"",""Soft""]"
"","","","","","html-slider-response","109","360342","0.0-105.0","f1jydzhmr0","NaN","<div style=""width:500px;"">
                                <p style=""font-size:50px; font-weight:bold;""
                                ></p>
                                <div style=""width:240px; margin: auto;"">
                                    <img src=""images/D24.png"" style= ""width:200px""alt=""img"">
                                </div>
                            </div>","-58","","0","images/D24.png","","","","[""Hard"",""Soft""]"
"","","","","","html-slider-response","110","365858","0.0-106.0","f1jydzhmr0","NaN","<div style=""width:500px;"">
                                <p style=""font-size:50px; font-weight:bold;""
                                ></p>
                                <div style=""width:240px; margin: auto;"">
                                    <img src=""images/D66.png"" style= ""width:200px""alt=""img"">
                                </div>
                            </div>","29","","0","images/D66.png","","","","[""Hard"",""Soft""]"
"","","","","","html-slider-response","111","368276","0.0-107.0","f1jydzhmr0","NaN","<div style=""width:500px;"">
                                <p style=""font-size:50px; font-weight:bold;""
                                ></p>
                                <div style=""width:240px; margin: auto;"">
                                    <img src=""images/D75.png"" style= ""width:200px""alt=""img"">
                                </div>
                            </div>","133","","0","images/D75.png","","","","[""Hard"",""Soft""]"
"","","","","","html-slider-response","112","371275","0.0-108.0","f1jydzhmr0","NaN","<div style=""width:500px;"">
                                <p style=""font-size:50px; font-weight:bold;""
                                ></p>
                                <div style=""width:240px; margin: auto;"">
                                    <img src=""images/D8.png"" style= ""width:200px""alt=""img"">
                                </div>
                            </div>","37","","0","images/D8.png","","","","[""Hard"",""Soft""]"
"","","","","","html-slider-response","113","374458","0.0-109.0","f1jydzhmr0","NaN","<div style=""width:500px;"">
                                <p style=""font-size:50px; font-weight:bold;""
                                ></p>
                                <div style=""width:240px; margin: auto;"">
                                    <img src=""images/D22.png"" style= ""width:200px""alt=""img"">
                                </div>
                            </div>","-43","","0","images/D22.png","","","","[""Hard"",""Soft""]"
"","","","","","html-slider-response","114","380858","0.0-110.0","f1jydzhmr0","NaN","<div style=""width:500px;"">
                                <p style=""font-size:50px; font-weight:bold;""
                                ></p>
                                <div style=""width:240px; margin: auto;"">
                                    <img src=""images/D35.png"" style= ""width:200px""alt=""img"">
                                </div>
                            </div>","24","","0","images/D35.png","","","","[""Hard"",""Soft""]"
"","","","","","html-slider-response","115","382791","0.0-111.0","f1jydzhmr0","NaN","<div style=""width:500px;"">
                                <p style=""font-size:50px; font-weight:bold;""
                                ></p>
                                <div style=""width:240px; margin: auto;"">
                                    <img src=""images/D76.png"" style= ""width:200px""alt=""img"">
                                </div>
                            </div>","-130","","0","images/D76.png","","","","[""Hard"",""Soft""]"
"","","","","","html-slider-response","116","384325","0.0-112.0","f1jydzhmr0","NaN","<div style=""width:500px;"">
                                <p style=""font-size:50px; font-weight:bold;""
                                ></p>
                                <div style=""width:240px; margin: auto;"">
                                    <img src=""images/D94.png"" style= ""width:200px""alt=""img"">
                                </div>
                            </div>","-200","","0","images/D94.png","","","","[""Hard"",""Soft""]"
"","","","","","html-slider-response","117","387908","0.0-113.0","f1jydzhmr0","NaN","<div style=""width:500px;"">
                                <p style=""font-size:50px; font-weight:bold;""
                                ></p>
                                <div style=""width:240px; margin: auto;"">
                                    <img src=""images/D21.png"" style= ""width:200px""alt=""img"">
                                </div>
                            </div>","29","","0","images/D21.png","","","","[""Hard"",""Soft""]"
"","","","","","html-slider-response","118","390709","0.0-114.0","f1jydzhmr0","NaN","<div style=""width:500px;"">
                                <p style=""font-size:50px; font-weight:bold;""
                                ></p>
                                <div style=""width:240px; margin: auto;"">
                                    <img src=""images/D57.png"" style= ""width:200px""alt=""img"">
                                </div>
                            </div>","-200","","0","images/D57.png","","","","[""Hard"",""Soft""]"
"","","","","","html-slider-response","119","393191","0.0-115.0","f1jydzhmr0","NaN","<div style=""width:500px;"">
                                <p style=""font-size:50px; font-weight:bold;""
                                ></p>
                                <div style=""width:240px; margin: auto;"">
                                    <img src=""images/D3.png"" style= ""width:200px""alt=""img"">
                                </div>
                            </div>","-52","","0","images/D3.png","","","","[""Hard"",""Soft""]"
"","","","","","html-slider-response","120","397691","0.0-116.0","f1jydzhmr0","NaN","<div style=""width:500px;"">
                                <p style=""font-size:50px; font-weight:bold;""
                                ></p>
                                <div style=""width:240px; margin: auto;"">
                                    <img src=""images/D51.png"" style= ""width:200px""alt=""img"">
                                </div>
                            </div>","162","","0","images/D51.png","","","","[""Hard"",""Soft""]"
"","","","","","html-slider-response","121","399957","0.0-117.0","f1jydzhmr0","NaN","<div style=""width:500px;"">
                                <p style=""font-size:50px; font-weight:bold;""
                                ></p>
                                <div style=""width:240px; margin: auto;"">
                                    <img src=""images/D78.png"" style= ""width:200px""alt=""img"">
                                </div>
                            </div>","78","","0","images/D78.png","","","","[""Hard"",""Soft""]"
"","","","","","html-slider-response","122","402275","0.0-118.0","f1jydzhmr0","NaN","<div style=""width:500px;"">
                                <p style=""font-size:50px; font-weight:bold;""
                                ></p>
                                <div style=""width:240px; margin: auto;"">
                                    <img src=""images/D1.png"" style= ""width:200px""alt=""img"">
                                </div>
                            </div>","-152","","0","images/D1.png","","","","[""Hard"",""Soft""]"
"","","","","","html-slider-response","123","404607","0.0-119.0","f1jydzhmr0","NaN","<div style=""width:500px;"">
                                <p style=""font-size:50px; font-weight:bold;""
                                ></p>
                                <div style=""width:240px; margin: auto;"">
                                    <img src=""images/D80.png"" style= ""width:200px""alt=""img"">
                                </div>
                            </div>","-200","","0","images/D80.png","","","","[""Hard"",""Soft""]"
"","","","","","html-slider-response","124","408243","0.0-120.0","f1jydzhmr0","NaN","<div style=""width:500px;"">
                                <p style=""font-size:50px; font-weight:bold;""
                                ></p>
                                <div style=""width:240px; margin: auto;"">
                                    <img src=""images/D36.png"" style= ""width:200px""alt=""img"">
                                </div>
                            </div>","-54","","0","images/D36.png","","","","[""Hard"",""Soft""]"
"","","","","","html-slider-response","125","410341","0.0-121.0","f1jydzhmr0","NaN","<div style=""width:500px;"">
                                <p style=""font-size:50px; font-weight:bold;""
                                ></p>
                                <div style=""width:240px; margin: auto;"">
                                    <img src=""images/D52.png"" style= ""width:200px""alt=""img"">
                                </div>
                            </div>","-46","","0","images/D52.png","","","","[""Hard"",""Soft""]"
"","","","","","html-slider-response","126","412491","0.0-122.0","f1jydzhmr0","NaN","<div style=""width:500px;"">
                                <p style=""font-size:50px; font-weight:bold;""
                                ></p>
                                <div style=""width:240px; margin: auto;"">
                                    <img src=""images/D74.png"" style= ""width:200px""alt=""img"">
                                </div>
                            </div>","78","","0","images/D74.png","","","","[""Hard"",""Soft""]"
"","","","","","html-slider-response","127","415192","0.0-123.0","f1jydzhmr0","NaN","<div style=""width:500px;"">
                                <p style=""font-size:50px; font-weight:bold;""
                                ></p>
                                <div style=""width:240px; margin: auto;"">
                                    <img src=""images/D95.png"" style= ""width:200px""alt=""img"">
                                </div>
                            </div>","-200","","0","images/D95.png","","","","[""Hard"",""Soft""]"
"","","","","","html-slider-response","128","417993","0.0-124.0","f1jydzhmr0","NaN","<div style=""width:500px;"">
                                <p style=""font-size:50px; font-weight:bold;""
                                ></p>
                                <div style=""width:240px; margin: auto;"">
                                    <img src=""images/D81.png"" style= ""width:200px""alt=""img"">
                                </div>
                            </div>","181","","0","images/D81.png","","","","[""Hard"",""Soft""]"
"","","","","","html-slider-response","129","420859","0.0-125.0","f1jydzhmr0","NaN","<div style=""width:500px;"">
                                <p style=""font-size:50px; font-weight:bold;""
                                ></p>
                                <div style=""width:240px; margin: auto;"">
                                    <img src=""images/D55.png"" style= ""width:200px""alt=""img"">
                                </div>
                            </div>","-62","","0","images/D55.png","","","","[""Hard"",""Soft""]"
"","","","","","html-slider-response","130","423275","0.0-126.0","f1jydzhmr0","NaN","<div style=""width:500px;"">
                                <p style=""font-size:50px; font-weight:bold;""
                                ></p>
                                <div style=""width:240px; margin: auto;"">
                                    <img src=""images/D46.png"" style= ""width:200px""alt=""img"">
                                </div>
                            </div>","200","","0","images/D46.png","","","","[""Hard"",""Soft""]"
"","","","","","html-slider-response","131","425993","0.0-127.0","f1jydzhmr0","NaN","<div style=""width:500px;"">
                                <p style=""font-size:50px; font-weight:bold;""
                                ></p>
                                <div style=""width:240px; margin: auto;"">
                                    <img src=""images/D14.png"" style= ""width:200px""alt=""img"">
                                </div>
                            </div>","-31","","0","images/D14.png","","","","[""Hard"",""Soft""]"
"","","","","","html-slider-response","132","427908","0.0-128.0","f1jydzhmr0","NaN","<div style=""width:500px;"">
                                <p style=""font-size:50px; font-weight:bold;""
                                ></p>
                                <div style=""width:240px; margin: auto;"">
                                    <img src=""images/D77.png"" style= ""width:200px""alt=""img"">
                                </div>
                            </div>","50","","0","images/D77.png","","","","[""Hard"",""Soft""]"
"","","","","","html-slider-response","133","430075","0.0-129.0","f1jydzhmr0","NaN","<div style=""width:500px;"">
                                <p style=""font-size:50px; font-weight:bold;""
                                ></p>
                                <div style=""width:240px; margin: auto;"">
                                    <img src=""images/D47.png"" style= ""width:200px""alt=""img"">
                                </div>
                            </div>","46","","0","images/D47.png","","","","[""Hard"",""Soft""]"
"","","","","","html-slider-response","134","433357","0.0-130.0","f1jydzhmr0","NaN","<div style=""width:500px;"">
                                <p style=""font-size:50px; font-weight:bold;""
                                ></p>
                                <div style=""width:240px; margin: auto;"">
                                    <img src=""images/D102.png"" style= ""width:200px""alt=""img"">
                                </div>
                            </div>","-41","","0","images/D102.png","","","","[""Hard"",""Soft""]"
"","","","","","html-slider-response","135","435940","0.0-131.0","f1jydzhmr0","NaN","<div style=""width:500px;"">
                                <p style=""font-size:50px; font-weight:bold;""
                                ></p>
                                <div style=""width:240px; margin: auto;"">
                                    <img src=""images/D49.png"" style= ""width:200px""alt=""img"">
                                </div>
                            </div>","35","","0","images/D49.png","","","","[""Hard"",""Soft""]"
"","","","","","html-slider-response","136","438443","0.0-132.0","f1jydzhmr0","NaN","<div style=""width:500px;"">
                                <p style=""font-size:50px; font-weight:bold;""
                                ></p>
                                <div style=""width:240px; margin: auto;"">
                                    <img src=""images/D104.png"" style= ""width:200px""alt=""img"">
                                </div>
                            </div>","97","","0","images/D104.png","","","","[""Hard"",""Soft""]"
"","","","","","html-slider-response","137","440844","0.0-133.0","f1jydzhmr0","NaN","<div style=""width:500px;"">
                                <p style=""font-size:50px; font-weight:bold;""
                                ></p>
                                <div style=""width:240px; margin: auto;"">
                                    <img src=""images/D65.png"" style= ""width:200px""alt=""img"">
                                </div>
                            </div>","-60","","0","images/D65.png","","","","[""Hard"",""Soft""]"
"","","","","","html-slider-response","138","443158","0.0-134.0","f1jydzhmr0","NaN","<div style=""width:500px;"">
                                <p style=""font-size:50px; font-weight:bold;""
                                ></p>
                                <div style=""width:240px; margin: auto;"">
                                    <img src=""images/D79.png"" style= ""width:200px""alt=""img"">
                                </div>
                            </div>","43","","0","images/D79.png","","","","[""Hard"",""Soft""]"
"","","","","","html-slider-response","139","444925","0.0-135.0","f1jydzhmr0","NaN","<div style=""width:500px;"">
                                <p style=""font-size:50px; font-weight:bold;""
                                ></p>
                                <div style=""width:240px; margin: auto;"">
                                    <img src=""images/D92.png"" style= ""width:200px""alt=""img"">
                                </div>
                            </div>","-200","","0","images/D92.png","","","","[""Hard"",""Soft""]"
"","","","","","html-slider-response","140","447775","0.0-136.0","f1jydzhmr0","NaN","<div style=""width:500px;"">
                                <p style=""font-size:50px; font-weight:bold;""
                                ></p>
                                <div style=""width:240px; margin: auto;"">
                                    <img src=""images/D87.png"" style= ""width:200px""alt=""img"">
                                </div>
                            </div>","-17","","0","images/D87.png","","","","[""Hard"",""Soft""]"
"","","","","","html-slider-response","141","449325","0.0-137.0","f1jydzhmr0","NaN","<div style=""width:500px;"">
                                <p style=""font-size:50px; font-weight:bold;""
                                ></p>
                                <div style=""width:240px; margin: auto;"">
                                    <img src=""images/D26.png"" style= ""width:200px""alt=""img"">
                                </div>
                            </div>","-200","","0","images/D26.png","","","","[""Hard"",""Soft""]"
"","","","","","html-slider-response","142","452457","0.0-138.0","f1jydzhmr0","NaN","<div style=""width:500px;"">
                                <p style=""font-size:50px; font-weight:bold;""
                                ></p>
                                <div style=""width:240px; margin: auto;"">
                                    <img src=""images/D106.png"" style= ""width:200px""alt=""img"">
                                </div>
                            </div>","86","","0","images/D106.png","","","","[""Hard"",""Soft""]"
"","","","","","html-slider-response","143","454874","0.0-139.0","f1jydzhmr0","NaN","<div style=""width:500px;"">
                                <p style=""font-size:50px; font-weight:bold;""
                                ></p>
                                <div style=""width:240px; margin: auto;"">
                                    <img src=""images/D19.png"" style= ""width:200px""alt=""img"">
                                </div>
                            </div>","-85","","0","images/D19.png","","","","[""Hard"",""Soft""]"
"","","","","","html-button-response","144","456213","0.0-140.0","f1jydzhmr0","838","You have completed the second block of trials out of six. Please click 'Continue' when you are ready proceed.","0","","","","","","",""
"","","","","","html-button-response","145","457816","0.0-141.0","f1jydzhmr0","1602","In the following trials, you will be asked to rate textures on the scale <b>Blobby</b> versus <b>Stripey</b>. Please click 'Continue' when you are ready proceed.","0","","","","","","",""
"","","","","","html-slider-response","146","460425","0.0-142.0","f1jydzhmr0","NaN","<div style=""width:500px;"">
                                <p style=""font-size:50px; font-weight:bold;""
                                ></p>
                                <div style=""width:240px; margin: auto;"">
                                    <img src=""images/D19.png"" style= ""width:200px""alt=""img"">
                                </div>
                            </div>","-97","","0","images/D19.png","","","","[""Blobby"",""Stripey""]"
"","","","","","html-slider-response","147","463542","0.0-143.0","f1jydzhmr0","NaN","<div style=""width:500px;"">
                                <p style=""font-size:50px; font-weight:bold;""
                                ></p>
                                <div style=""width:240px; margin: auto;"">
                                    <img src=""images/D104.png"" style= ""width:200px""alt=""img"">
                                </div>
                            </div>","20","","0","images/D104.png","","","","[""Blobby"",""Stripey""]"
"","","","","","html-slider-response","148","466259","0.0-144.0","f1jydzhmr0","NaN","<div style=""width:500px;"">
                                <p style=""font-size:50px; font-weight:bold;""
                                ></p>
                                <div style=""width:240px; margin: auto;"">
                                    <img src=""images/D66.png"" style= ""width:200px""alt=""img"">
                                </div>
                            </div>","-178","","0","images/D66.png","","","","[""Blobby"",""Stripey""]"
"","","","","","html-slider-response","149","467891","0.0-145.0","f1jydzhmr0","NaN","<div style=""width:500px;"">
                                <p style=""font-size:50px; font-weight:bold;""
                                ></p>
                                <div style=""width:240px; margin: auto;"">
                                    <img src=""images/D14.png"" style= ""width:200px""alt=""img"">
                                </div>
                            </div>","142","","0","images/D14.png","","","","[""Blobby"",""Stripey""]"
"","","","","","html-slider-response","150","469590","0.0-146.0","f1jydzhmr0","NaN","<div style=""width:500px;"">
                                <p style=""font-size:50px; font-weight:bold;""
                                ></p>
                                <div style=""width:240px; margin: auto;"">
                                    <img src=""images/D85.png"" style= ""width:200px""alt=""img"">
                                </div>
                            </div>","200","","0","images/D85.png","","","","[""Blobby"",""Stripey""]"
"","","","","","html-slider-response","151","471909","0.0-147.0","f1jydzhmr0","NaN","<div style=""width:500px;"">
                                <p style=""font-size:50px; font-weight:bold;""
                                ></p>
                                <div style=""width:240px; margin: auto;"">
                                    <img src=""images/D92.png"" style= ""width:200px""alt=""img"">
                                </div>
                            </div>","-160","","0","images/D92.png","","","","[""Blobby"",""Stripey""]"
"","","","","","html-slider-response","152","473475","0.0-148.0","f1jydzhmr0","NaN","<div style=""width:500px;"">
                                <p style=""font-size:50px; font-weight:bold;""
                                ></p>
                                <div style=""width:240px; margin: auto;"">
                                    <img src=""images/D78.png"" style= ""width:200px""alt=""img"">
                                </div>
                            </div>","200","","0","images/D78.png","","","","[""Blobby"",""Stripey""]"
"","","","","","html-slider-response","153","476558","0.0-149.0","f1jydzhmr0","NaN","<div style=""width:500px;"">
                                <p style=""font-size:50px; font-weight:bold;""
                                ></p>
                                <div style=""width:240px; margin: auto;"">
                                    <img src=""images/D84.png"" style= ""width:200px""alt=""img"">
                                </div>
                            </div>","-135","","0","images/D84.png","","","","[""Blobby"",""Stripey""]"
"","","","","","html-slider-response","154","479293","0.0-150.0","f1jydzhmr0","NaN","<div style=""width:500px;"">
                                <p style=""font-size:50px; font-weight:bold;""
                                ></p>
                                <div style=""width:240px; margin: auto;"">
                                    <img src=""images/D52.png"" style= ""width:200px""alt=""img"">
                                </div>
                            </div>","122","","0","images/D52.png","","","","[""Blobby"",""Stripey""]"
"","","","","","html-slider-response","155","481628","0.0-151.0","f1jydzhmr0","NaN","<div style=""width:500px;"">
                                <p style=""font-size:50px; font-weight:bold;""
                                ></p>
                                <div style=""width:240px; margin: auto;"">
                                    <img src=""images/D32.png"" style= ""width:200px""alt=""img"">
                                </div>
                            </div>","-170","","0","images/D32.png","","","","[""Blobby"",""Stripey""]"
"","","","","","html-slider-response","156","483274","0.0-152.0","f1jydzhmr0","NaN","<div style=""width:500px;"">
                                <p style=""font-size:50px; font-weight:bold;""
                                ></p>
                                <div style=""width:240px; margin: auto;"">
                                    <img src=""images/D26.png"" style= ""width:200px""alt=""img"">
                                </div>
                            </div>","200","","0","images/D26.png","","","","[""Blobby"",""Stripey""]"
"","","","","","html-slider-response","157","485007","0.0-153.0","f1jydzhmr0","NaN","<div style=""width:500px;"">
                                <p style=""font-size:50px; font-weight:bold;""
                                ></p>
                                <div style=""width:240px; margin: auto;"">
                                    <img src=""images/D79.png"" style= ""width:200px""alt=""img"">
                                </div>
                            </div>","200","","0","images/D79.png","","","","[""Blobby"",""Stripey""]"
"","","","","","html-slider-response","158","487725","0.0-154.0","f1jydzhmr0","NaN","<div style=""width:500px;"">
                                <p style=""font-size:50px; font-weight:bold;""
                                ></p>
                                <div style=""width:240px; margin: auto;"">
                                    <img src=""images/D83.png"" style= ""width:200px""alt=""img"">
                                </div>
                            </div>","95","","0","images/D83.png","","","","[""Blobby"",""Stripey""]"
"","","","","","html-slider-response","159","489575","0.0-155.0","f1jydzhmr0","NaN","<div style=""width:500px;"">
                                <p style=""font-size:50px; font-weight:bold;""
                                ></p>
                                <div style=""width:240px; margin: auto;"">
                                    <img src=""images/D68.png"" style= ""width:200px""alt=""img"">
                                </div>
                            </div>","80","","0","images/D68.png","","","","[""Blobby"",""Stripey""]"
"","","","","","html-slider-response","160","491941","0.0-156.0","f1jydzhmr0","NaN","<div style=""width:500px;"">
                                <p style=""font-size:50px; font-weight:bold;""
                                ></p>
                                <div style=""width:240px; margin: auto;"">
                                    <img src=""images/D82.png"" style= ""width:200px""alt=""img"">
                                </div>
                            </div>","-157","","0","images/D82.png","","","","[""Blobby"",""Stripey""]"
"","","","","","html-slider-response","161","495392","0.0-157.0","f1jydzhmr0","NaN","<div style=""width:500px;"">
                                <p style=""font-size:50px; font-weight:bold;""
                                ></p>
                                <div style=""width:240px; margin: auto;"">
                                    <img src=""images/D24.png"" style= ""width:200px""alt=""img"">
                                </div>
                            </div>","-190","","0","images/D24.png","","","","[""Blobby"",""Stripey""]"
"","","","","","html-slider-response","162","497493","0.0-158.0","f1jydzhmr0","NaN","<div style=""width:500px;"">
                                <p style=""font-size:50px; font-weight:bold;""
                                ></p>
                                <div style=""width:240px; margin: auto;"">
                                    <img src=""images/D65.png"" style= ""width:200px""alt=""img"">
                                </div>
                            </div>","-144","","0","images/D65.png","","","","[""Blobby"",""Stripey""]"
"","","","","","html-slider-response","163","499624","0.0-159.0","f1jydzhmr0","NaN","<div style=""width:500px;"">
                                <p style=""font-size:50px; font-weight:bold;""
                                ></p>
                                <div style=""width:240px; margin: auto;"">
                                    <img src=""images/D22.png"" style= ""width:200px""alt=""img"">
                                </div>
                            </div>","-104","","0","images/D22.png","","","","[""Blobby"",""Stripey""]"
"","","","","","html-slider-response","164","503892","0.0-160.0","f1jydzhmr0","NaN","<div style=""width:500px;"">
                                <p style=""font-size:50px; font-weight:bold;""
                                ></p>
                                <div style=""width:240px; margin: auto;"">
                                    <img src=""images/D1.png"" style= ""width:200px""alt=""img"">
                                </div>
                            </div>","1","","0","images/D1.png","","","","[""Blobby"",""Stripey""]"
"","","","","","html-slider-response","165","505742","0.0-161.0","f1jydzhmr0","NaN","<div style=""width:500px;"">
                                <p style=""font-size:50px; font-weight:bold;""
                                ></p>
                                <div style=""width:240px; margin: auto;"">
                                    <img src=""images/D105.png"" style= ""width:200px""alt=""img"">
                                </div>
                            </div>","200","","0","images/D105.png","","","","[""Blobby"",""Stripey""]"
"","","","","","html-slider-response","166","510346","0.0-162.0","f1jydzhmr0","NaN","<div style=""width:500px;"">
                                <p style=""font-size:50px; font-weight:bold;""
                                ></p>
                                <div style=""width:240px; margin: auto;"">
                                    <img src=""images/D102.png"" style= ""width:200px""alt=""img"">
                                </div>
                            </div>","-1","","0","images/D102.png","","","","[""Blobby"",""Stripey""]"
"","","","","","html-slider-response","167","514408","0.0-163.0","f1jydzhmr0","NaN","<div style=""width:500px;"">
                                <p style=""font-size:50px; font-weight:bold;""
                                ></p>
                                <div style=""width:240px; margin: auto;"">
                                    <img src=""images/D3.png"" style= ""width:200px""alt=""img"">
                                </div>
                            </div>","-137","","0","images/D3.png","","","","[""Blobby"",""Stripey""]"
"","","","","","html-slider-response","168","517191","0.0-164.0","f1jydzhmr0","NaN","<div style=""width:500px;"">
                                <p style=""font-size:50px; font-weight:bold;""
                                ></p>
                                <div style=""width:240px; margin: auto;"">
                                    <img src=""images/D55.png"" style= ""width:200px""alt=""img"">
                                </div>
                            </div>","-122","","0","images/D55.png","","","","[""Blobby"",""Stripey""]"
"","","","","","html-slider-response","169","519060","0.0-165.0","f1jydzhmr0","NaN","<div style=""width:500px;"">
                                <p style=""font-size:50px; font-weight:bold;""
                                ></p>
                                <div style=""width:240px; margin: auto;"">
                                    <img src=""images/D75.png"" style= ""width:200px""alt=""img"">
                                </div>
                            </div>","-200","","0","images/D75.png","","","","[""Blobby"",""Stripey""]"
"","","","","","html-slider-response","170","521408","0.0-166.0","f1jydzhmr0","NaN","<div style=""width:500px;"">
                                <p style=""font-size:50px; font-weight:bold;""
                                ></p>
                                <div style=""width:240px; margin: auto;"">
                                    <img src=""images/D17.png"" style= ""width:200px""alt=""img"">
                                </div>
                            </div>","76","","0","images/D17.png","","","","[""Blobby"",""Stripey""]"
"","","","","","html-slider-response","171","524243","0.0-167.0","f1jydzhmr0","NaN","<div style=""width:500px;"">
                                <p style=""font-size:50px; font-weight:bold;""
                                ></p>
                                <div style=""width:240px; margin: auto;"">
                                    <img src=""images/D103.png"" style= ""width:200px""alt=""img"">
                                </div>
                            </div>","-60","","0","images/D103.png","","","","[""Blobby"",""Stripey""]"
"","","","","","html-slider-response","172","526158","0.0-168.0","f1jydzhmr0","NaN","<div style=""width:500px;"">
                                <p style=""font-size:50px; font-weight:bold;""
                                ></p>
                                <div style=""width:240px; margin: auto;"">
                                    <img src=""images/D57.png"" style= ""width:200px""alt=""img"">
                                </div>
                            </div>","-200","","0","images/D57.png","","","","[""Blobby"",""Stripey""]"
"","","","","","html-slider-response","173","528008","0.0-169.0","f1jydzhmr0","NaN","<div style=""width:500px;"">
                                <p style=""font-size:50px; font-weight:bold;""
                                ></p>
                                <div style=""width:240px; margin: auto;"">
                                    <img src=""images/D64.png"" style= ""width:200px""alt=""img"">
                                </div>
                            </div>","200","","0","images/D64.png","","","","[""Blobby"",""Stripey""]"
"","","","","","html-slider-response","174","531409","0.0-170.0","f1jydzhmr0","NaN","<div style=""width:500px;"">
                                <p style=""font-size:50px; font-weight:bold;""
                                ></p>
                                <div style=""width:240px; margin: auto;"">
                                    <img src=""images/D37.png"" style= ""width:200px""alt=""img"">
                                </div>
                            </div>","-161","","0","images/D37.png","","","","[""Blobby"",""Stripey""]"
"","","","","","html-slider-response","175","535692","0.0-171.0","f1jydzhmr0","NaN","<div style=""width:500px;"">
                                <p style=""font-size:50px; font-weight:bold;""
                                ></p>
                                <div style=""width:240px; margin: auto;"">
                                    <img src=""images/D6.png"" style= ""width:200px""alt=""img"">
                                </div>
                            </div>","-42","","0","images/D6.png","","","","[""Blobby"",""Stripey""]"
"","","","","","html-slider-response","176","537507","0.0-172.0","f1jydzhmr0","NaN","<div style=""width:500px;"">
                                <p style=""font-size:50px; font-weight:bold;""
                                ></p>
                                <div style=""width:240px; margin: auto;"">
                                    <img src=""images/D106.png"" style= ""width:200px""alt=""img"">
                                </div>
                            </div>","200","","0","images/D106.png","","","","[""Blobby"",""Stripey""]"
"","","","","","html-slider-response","177","540445","0.0-173.0","f1jydzhmr0","NaN","<div style=""width:500px;"">
                                <p style=""font-size:50px; font-weight:bold;""
                                ></p>
                                <div style=""width:240px; margin: auto;"">
                                    <img src=""images/D46.png"" style= ""width:200px""alt=""img"">
                                </div>
                            </div>","28","","0","images/D46.png","","","","[""Blobby"",""Stripey""]"
"","","","","","html-slider-response","178","543792","0.0-174.0","f1jydzhmr0","NaN","<div style=""width:500px;"">
                                <p style=""font-size:50px; font-weight:bold;""
                                ></p>
                                <div style=""width:240px; margin: auto;"">
                                    <img src=""images/D77.png"" style= ""width:200px""alt=""img"">
                                </div>
                            </div>","30","","0","images/D77.png","","","","[""Blobby"",""Stripey""]"
"","","","","","html-slider-response","179","547092","0.0-175.0","f1jydzhmr0","NaN","<div style=""width:500px;"">
                                <p style=""font-size:50px; font-weight:bold;""
                                ></p>
                                <div style=""width:240px; margin: auto;"">
                                    <img src=""images/D35.png"" style= ""width:200px""alt=""img"">
                                </div>
                            </div>","-71","","0","images/D35.png","","","","[""Blobby"",""Stripey""]"
"","","","","","html-slider-response","180","549292","0.0-176.0","f1jydzhmr0","NaN","<div style=""width:500px;"">
                                <p style=""font-size:50px; font-weight:bold;""
                                ></p>
                                <div style=""width:240px; margin: auto;"">
                                    <img src=""images/D47.png"" style= ""width:200px""alt=""img"">
                                </div>
                            </div>","169","","0","images/D47.png","","","","[""Blobby"",""Stripey""]"
"","","","","","html-slider-response","181","551325","0.0-177.0","f1jydzhmr0","NaN","<div style=""width:500px;"">
                                <p style=""font-size:50px; font-weight:bold;""
                                ></p>
                                <div style=""width:240px; margin: auto;"">
                                    <img src=""images/D111.png"" style= ""width:200px""alt=""img"">
                                </div>
                            </div>","-158","","0","images/D111.png","","","","[""Blobby"",""Stripey""]"
"","","","","","html-slider-response","182","553775","0.0-178.0","f1jydzhmr0","NaN","<div style=""width:500px;"">
                                <p style=""font-size:50px; font-weight:bold;""
                                ></p>
                                <div style=""width:240px; margin: auto;"">
                                    <img src=""images/D53.png"" style= ""width:200px""alt=""img"">
                                </div>
                            </div>","41","","0","images/D53.png","","","","[""Blobby"",""Stripey""]"
"","","","","","html-slider-response","183","556075","0.0-179.0","f1jydzhmr0","NaN","<div style=""width:500px;"">
                                <p style=""font-size:50px; font-weight:bold;""
                                ></p>
                                <div style=""width:240px; margin: auto;"">
                                    <img src=""images/D9.png"" style= ""width:200px""alt=""img"">
                                </div>
                            </div>","-175","","0","images/D9.png","","","","[""Blobby"",""Stripey""]"
"","","","","","html-slider-response","184","558092","0.0-180.0","f1jydzhmr0","NaN","<div style=""width:500px;"">
                                <p style=""font-size:50px; font-weight:bold;""
                                ></p>
                                <div style=""width:240px; margin: auto;"">
                                    <img src=""images/D76.png"" style= ""width:200px""alt=""img"">
                                </div>
                            </div>","108","","0","images/D76.png","","","","[""Blobby"",""Stripey""]"
"","","","","","html-slider-response","185","559910","0.0-181.0","f1jydzhmr0","NaN","<div style=""width:500px;"">
                                <p style=""font-size:50px; font-weight:bold;""
                                ></p>
                                <div style=""width:240px; margin: auto;"">
                                    <img src=""images/D20.png"" style= ""width:200px""alt=""img"">
                                </div>
                            </div>","200","","0","images/D20.png","","","","[""Blobby"",""Stripey""]"
"","","","","","html-slider-response","186","562925","0.0-182.0","f1jydzhmr0","NaN","<div style=""width:500px;"">
                                <p style=""font-size:50px; font-weight:bold;""
                                ></p>
                                <div style=""width:240px; margin: auto;"">
                                    <img src=""images/D8.png"" style= ""width:200px""alt=""img"">
                                </div>
                            </div>","-54","","0","images/D8.png","","","","[""Blobby"",""Stripey""]"
"","","","","","html-slider-response","187","565909","0.0-183.0","f1jydzhmr0","NaN","<div style=""width:500px;"">
                                <p style=""font-size:50px; font-weight:bold;""
                                ></p>
                                <div style=""width:240px; margin: auto;"">
                                    <img src=""images/D18.png"" style= ""width:200px""alt=""img"">
                                </div>
