"success","timeout","failed_images","failed_audio","failed_video","trial_type","trial_index","time_elapsed","internal_node_id","subject_id","rt","stimulus","response","question_order","slider_start","image_path","practiceTrial","practiceTrialNum","correct","slider_labels"
"true","false","[]","[]","[]","preload","0","6","0.0-0.0","nghpt3u3mq","","","","","","","","","",""
"","","","","","html-button-response","1","1900","0.0-1.0","nghpt3u3mq","1891","<div style='text-align:center; font-size:20px; line-height:25px; width: 1200px;'>
                Welcome to our experiment! <br>
                <br>At the bottom of this screen, you will see a button that says 'Begin Experiment.
                <br>Please only click that button when you are ready to complete the 25 minute experiment in one sitting. <br>
                <br> Once you click that button, it will not be possible to restart the experiment. <br><br>","0","","","","","","",""
"true","","","","","fullscreen","2","3543","0.0-2.0","nghpt3u3mq","640","","","","","","","","",""
"","","","","","survey-multi-select","3","6700","0.0-3.0","nghpt3u3mq","3153","","{""Consent"":[""<strong>I consent</strong>""]}","[0]","","","","","",""
"","","","","","html-button-response","4","8339","0.0-4.0","nghpt3u3mq","1637","Welcome! <p> This experiment involves two parts: demographic information, followed by the experimental task.<p> It will take about 25 minutes to complete both parts.","0","","","","","","",""
"","","","","","survey-text","5","15468","0.0-5.0","nghpt3u3mq","7109","","{""Age"":""20"",""Gender"":""female"",""Race/ethnicity"":""black""}","","","","","","",""
"","","","","","html-slider-response","6","32189","0.0-6.0","nghpt3u3mq","16719","
                <div style='text-align:center; height: auto; margin-left=-100px; margin-bottom: -20px; font-size:20px; line-height:5px; width: 1200px;'>
                    <br>During this experiment, you will see a series of textures, one at a time, like the ones below: 
                </div>
                    <br>
                    <br>
                    <img src=""anchoring_visual_textures.png"" alt=""img"" style=""max-width:1200px; margin-left: -10px;"">
                </div>
                <div style=""clear: both;""></div>
                </div>
                    <div style='text-align:center; margin-left=-100px; font-size:20px; line-height:20px; width: 1200px; margin-top: -50px;'>
                    
                    <br> For each texture, you will be asked to rate where you think it falls on each of the response scales with the following endpoints:
                    </div>
                            <div style=""text-align: center; width: 1400px; "">
                                <p style=""font-size:20px; line-height:5px; ""><b>Blobby</b> versus <b>Stripey</b></p>
                                <p style=""font-size:20px; line-height:5px; ""><b>Rounded</b> versus <b>Rectangular</b></p>
                                <p style=""font-size:20px;line-height:5px;""><b>Coarse</b> versus <b>Fine</b></p>
                                <p style=""font-size:20px;line-height:5px; ""><b>Rough</b> versus <b>Smooth</b></p>
                                <p style=""font-size:20px;line-height:5px; ""><b>Random</b> versus <b>Non-Random</b></p>
                                <p style=""font-size:20px;line-height:5px;""><b>Hard</b> versus <b>Soft</b></p>
                            </div>
                            <div style='text-align:center; font-size:20px; line-height:20px; width: 1400px;'>
                    
                    Each trial will include one texture and one response scale. You will be asked to make your rating by sliding the cursor along a slider response scale like the one below.
                    <br><br> Before beginning, please look at the textures and scales. For each scale, think about the texture you associate most with the left endpoint. When you see that texture for that response scale, please click near the left of the scale.
                    <br><br> Now, please think about the texture you associate most with the right endpoint of each scale. When you see that texture for that response scale, please click near the right of the scale. 
                    <br><br> If you think a texture is not strongly associated with either endpoint of the scale, please click near the midpoint of the scale. Please use the full range of the scale. 
                    <br><br> You will be asked to rate each texture for a given scale before moving on to the next scale.
                    <br><br> Please press the 'Continue' button for instructions on how to use the slider.                     <br><br>
                ","186","","0","visual_textures_anchoring.png","true","","",""
"","","","","","html-button-response","7","40321","0.0-7.0","nghpt3u3mq","8130","<div style=""width:1200px; margin-top:-150px;""><p style=""text-align:center; font-size:24px;"">To move the slider, click and drag your cursor to the location of the scale where you would like to make your rating and then let go. <br><br> When you let go of the slider, your response will be recorded and the next trial will begin. <br><br><br>
                We are interested in your initial impressions of each texture and scale, so please go with your first intuition. <br><br>
                Before you begin the experiment, there will be four training trials for you to practice using the scale. <br><br><br><br></div>
                <div style=""width:1200px;""><p style=""text-align:center; font-size:20px;"">When you are ready to start the training trials, please click ""Continue"".</p></div>","0","","","","","","",""
"","","","","","html-slider-response","8","41149","0.0-8.0-0.0","nghpt3u3mq","NaN","<div style=""width:500px;"">
                                <p style=""font-size:25px;"">Please move the slider all the way to the <br> right endpoint of the scale</p>

                                </div>
                            </div>","194","","0","","true","0","true",""
"","","","","","html-button-response","9","42837","0.0-8.0-1.0","nghpt3u3mq","1185","<p align='center'><b>Good job!</b> Click on 'Continue' to proceed.</p>","0","","","","","","",""
"","","","","","html-slider-response","10","44766","0.0-9.0-0.0","nghpt3u3mq","NaN","<div style=""width:500px;"">
                                <p style=""font-size:25px;"">Please move the slider all the way to the <br> left endpoint of the scale</p>

                                </div>
                            </div>","-190","","0","","true","1","true",""
"","","","","","html-button-response","11","46086","0.0-9.0-1.0","nghpt3u3mq","816","<p align='center'><b>Good job!</b> Click on 'Continue' to proceed.</p>","0","","","","","","",""
"","","","","","html-slider-response","12","50899","0.0-10.0-0.0","nghpt3u3mq","NaN","<div style=""width:500px;"">
                                <p style=""font-size:25px;"">Please move the slider halfway between the center and right endpoint of the scale</p>

                                </div>
                            </div>","97","","0","","true","2","true",""
"","","","","","html-button-response","13","52201","0.0-10.0-1.0","nghpt3u3mq","800","<p align='center'><b>Good job!</b> Click on 'Continue' to proceed.</p>","0","","","","","","",""
"","","","","","html-slider-response","14","53847","0.0-11.0-0.0","nghpt3u3mq","NaN","<div style=""width:500px;"">
                                <p style=""font-size:25px;"">Please move the slider halfway between the center and left endpoint of the scale</p>

                                </div>
                            </div>","-103","","0","","true","3","true",""
"","","","","","html-button-response","15","55051","0.0-11.0-1.0","nghpt3u3mq","701","<p align='center'><b>Good job!</b> Click on 'Continue' to proceed.</p>","0","","","","","","",""
"","","","","","html-button-response","16","56752","0.0-12.0","nghpt3u3mq","1699","<div style=""width:800px; margin-top:-300px;""><p style=""text-align:center; font-size:22px; line-height:25px;""""> Great job! You've completed the practice trials.</div>
                     <div style=""width:800px; margin-top:-20px;""><p style=""text-align:center""><br><br> In the following trials, you will be asked to rate textures on each scale one-by-one. <br> You will be given opportunities to take breaks when you have completed each block of trials. There are six total blocks of trials. <br><br> Please click continue to begin the main task.<br><br><br> </div>","0","","","","","","",""
"","","","","","html-button-response","17","59585","0.0-13.0","nghpt3u3mq","2831","In the following trials, you will be asked to rate textures on the scale <b>Blobby</b> versus <b>Stripey</b>. Please click 'Continue' when you are ready proceed.","0","","","","","","",""
"","","","","","html-slider-response","18","60763","0.0-14.0","nghpt3u3mq","NaN","<div style=""width:500px;"">
                                <p style=""font-size:50px; font-weight:bold;""
                                ></p>
                                <div style=""width:240px; margin: auto;"">
                                    <img src=""images/D76.png"" style= ""width:200px""alt=""img"">
                                </div>
                            </div>","199","","0","images/D76.png","","","","[""Blobby"",""Stripey""]"
"","","","","","html-slider-response","19","64297","0.0-15.0","nghpt3u3mq","NaN","<div style=""width:500px;"">
                                <p style=""font-size:50px; font-weight:bold;""
                                ></p>
                                <div style=""width:240px; margin: auto;"">
                                    <img src=""images/D20.png"" style= ""width:200px""alt=""img"">
                                </div>
                            </div>","178","","0","images/D20.png","","","","[""Blobby"",""Stripey""]"
"","","","","","html-slider-response","20","66214","0.0-16.0","nghpt3u3mq","NaN","<div style=""width:500px;"">
                                <p style=""font-size:50px; font-weight:bold;""
                                ></p>
                                <div style=""width:240px; margin: auto;"">
                                    <img src=""images/D29.png"" style= ""width:200px""alt=""img"">
                                </div>
                            </div>","-184","","0","images/D29.png","","","","[""Blobby"",""Stripey""]"
"","","","","","html-slider-response","21","68612","0.0-17.0","nghpt3u3mq","NaN","<div style=""width:500px;"">
                                <p style=""font-size:50px; font-weight:bold;""
                                ></p>
                                <div style=""width:240px; margin: auto;"">
                                    <img src=""images/D26.png"" style= ""width:200px""alt=""img"">
                                </div>
                            </div>","190","","0","images/D26.png","","","","[""Blobby"",""Stripey""]"
"","","","","","html-slider-response","22","70245","0.0-18.0","nghpt3u3mq","NaN","<div style=""width:500px;"">
                                <p style=""font-size:50px; font-weight:bold;""
                                ></p>
                                <div style=""width:240px; margin: auto;"">
                                    <img src=""images/D51.png"" style= ""width:200px""alt=""img"">
                                </div>
                            </div>","178","","0","images/D51.png","","","","[""Blobby"",""Stripey""]"
"","","","","","html-slider-response","23","74713","0.0-19.0","nghpt3u3mq","NaN","<div style=""width:500px;"">
                                <p style=""font-size:50px; font-weight:bold;""
                                ></p>
                                <div style=""width:240px; margin: auto;"">
                                    <img src=""images/D81.png"" style= ""width:200px""alt=""img"">
                                </div>
                            </div>","-111","","0","images/D81.png","","","","[""Blobby"",""Stripey""]"
"","","","","","html-slider-response","24","77662","0.0-20.0","nghpt3u3mq","NaN","<div style=""width:500px;"">
                                <p style=""font-size:50px; font-weight:bold;""
                                ></p>
                                <div style=""width:240px; margin: auto;"">
                                    <img src=""images/D14.png"" style= ""width:200px""alt=""img"">
                                </div>
                            </div>","103","","0","images/D14.png","","","","[""Blobby"",""Stripey""]"
"","","","","","html-slider-response","25","79661","0.0-21.0","nghpt3u3mq","NaN","<div style=""width:500px;"">
                                <p style=""font-size:50px; font-weight:bold;""
                                ></p>
                                <div style=""width:240px; margin: auto;"">
                                    <img src=""images/D75.png"" style= ""width:200px""alt=""img"">
                                </div>
                            </div>","-194","","0","images/D75.png","","","","[""Blobby"",""Stripey""]"
"","","","","","html-slider-response","26","81961","0.0-22.0","nghpt3u3mq","NaN","<div style=""width:500px;"">
                                <p style=""font-size:50px; font-weight:bold;""
                                ></p>
                                <div style=""width:240px; margin: auto;"">
                                    <img src=""images/D95.png"" style= ""width:200px""alt=""img"">
                                </div>
                            </div>","112","","0","images/D95.png","","","","[""Blobby"",""Stripey""]"
"","","","","","html-slider-response","27","83611","0.0-23.0","nghpt3u3mq","NaN","<div style=""width:500px;"">
                                <p style=""font-size:50px; font-weight:bold;""
                                ></p>
                                <div style=""width:240px; margin: auto;"">
                                    <img src=""images/D83.png"" style= ""width:200px""alt=""img"">
                                </div>
                            </div>","194","","0","images/D83.png","","","","[""Blobby"",""Stripey""]"
"","","","","","html-slider-response","28","87560","0.0-24.0","nghpt3u3mq","NaN","<div style=""width:500px;"">
                                <p style=""font-size:50px; font-weight:bold;""
                                ></p>
                                <div style=""width:240px; margin: auto;"">
                                    <img src=""images/D80.png"" style= ""width:200px""alt=""img"">
                                </div>
                            </div>","-65","","0","images/D80.png","","","","[""Blobby"",""Stripey""]"
"","","","","","html-slider-response","29","89227","0.0-25.0","nghpt3u3mq","NaN","<div style=""width:500px;"">
                                <p style=""font-size:50px; font-weight:bold;""
                                ></p>
                                <div style=""width:240px; margin: auto;"">
                                    <img src=""images/D79.png"" style= ""width:200px""alt=""img"">
                                </div>
                            </div>","186","","0","images/D79.png","","","","[""Blobby"",""Stripey""]"
"","","","","","html-slider-response","30","92626","0.0-26.0","nghpt3u3mq","NaN","<div style=""width:500px;"">
                                <p style=""font-size:50px; font-weight:bold;""
                                ></p>
                                <div style=""width:240px; margin: auto;"">
                                    <img src=""images/D8.png"" style= ""width:200px""alt=""img"">
                                </div>
                            </div>","-94","","0","images/D8.png","","","","[""Blobby"",""Stripey""]"
"","","","","","html-slider-response","31","98844","0.0-27.0","nghpt3u3mq","NaN","<div style=""width:500px;"">
                                <p style=""font-size:50px; font-weight:bold;""
                                ></p>
                                <div style=""width:240px; margin: auto;"">
                                    <img src=""images/D84.png"" style= ""width:200px""alt=""img"">
                                </div>
                            </div>","-36","","0","images/D84.png","","","","[""Blobby"",""Stripey""]"
"","","","","","html-slider-response","32","100727","0.0-28.0","nghpt3u3mq","NaN","<div style=""width:500px;"">
                                <p style=""font-size:50px; font-weight:bold;""
                                ></p>
                                <div style=""width:240px; margin: auto;"">
                                    <img src=""images/D64.png"" style= ""width:200px""alt=""img"">
                                </div>
                            </div>","172","","0","images/D64.png","","","","[""Blobby"",""Stripey""]"
"","","","","","html-slider-response","33","103659","0.0-29.0","nghpt3u3mq","NaN","<div style=""width:500px;"">
                                <p style=""font-size:50px; font-weight:bold;""
                                ></p>
                                <div style=""width:240px; margin: auto;"">
                                    <img src=""images/D87.png"" style= ""width:200px""alt=""img"">
                                </div>
                            </div>","34","","0","images/D87.png","","","","[""Blobby"",""Stripey""]"
"","","","","","html-slider-response","34","105942","0.0-30.0","nghpt3u3mq","NaN","<div style=""width:500px;"">
                                <p style=""font-size:50px; font-weight:bold;""
                                ></p>
                                <div style=""width:240px; margin: auto;"">
                                    <img src=""images/D46.png"" style= ""width:200px""alt=""img"">
                                </div>
                            </div>","66","","0","images/D46.png","","","","[""Blobby"",""Stripey""]"
"","","","","","html-slider-response","35","107726","0.0-31.0","nghpt3u3mq","NaN","<div style=""width:500px;"">
                                <p style=""font-size:50px; font-weight:bold;""
                                ></p>
                                <div style=""width:240px; margin: auto;"">
                                    <img src=""images/D56.png"" style= ""width:200px""alt=""img"">
                                </div>
                            </div>","118","","0","images/D56.png","","","","[""Blobby"",""Stripey""]"
"","","","","","html-slider-response","36","109476","0.0-32.0","nghpt3u3mq","NaN","<div style=""width:500px;"">
                                <p style=""font-size:50px; font-weight:bold;""
                                ></p>
                                <div style=""width:240px; margin: auto;"">
                                    <img src=""images/D6.png"" style= ""width:200px""alt=""img"">
                                </div>
                            </div>","-183","","0","images/D6.png","","","","[""Blobby"",""Stripey""]"
"","","","","","html-slider-response","37","110976","0.0-33.0","nghpt3u3mq","NaN","<div style=""width:500px;"">
                                <p style=""font-size:50px; font-weight:bold;""
                                ></p>
                                <div style=""width:240px; margin: auto;"">
                                    <img src=""images/D48.png"" style= ""width:200px""alt=""img"">
                                </div>
                            </div>","-198","","0","images/D48.png","","","","[""Blobby"",""Stripey""]"
"","","","","","html-slider-response","38","114424","0.0-34.0","nghpt3u3mq","NaN","<div style=""width:500px;"">
                                <p style=""font-size:50px; font-weight:bold;""
                                ></p>
                                <div style=""width:240px; margin: auto;"">
                                    <img src=""images/D37.png"" style= ""width:200px""alt=""img"">
                                </div>
                            </div>","44","","0","images/D37.png","","","","[""Blobby"",""Stripey""]"
"","","","","","html-slider-response","39","116124","0.0-35.0","nghpt3u3mq","NaN","<div style=""width:500px;"">
                                <p style=""font-size:50px; font-weight:bold;""
                                ></p>
                                <div style=""width:240px; margin: auto;"">
                                    <img src=""images/D49.png"" style= ""width:200px""alt=""img"">
                                </div>
                            </div>","193","","0","images/D49.png","","","","[""Blobby"",""Stripey""]"
"","","","","","html-slider-response","40","117825","0.0-36.0","nghpt3u3mq","NaN","<div style=""width:500px;"">
                                <p style=""font-size:50px; font-weight:bold;""
                                ></p>
                                <div style=""width:240px; margin: auto;"">
                                    <img src=""images/D4.png"" style= ""width:200px""alt=""img"">
                                </div>
                            </div>","-181","","0","images/D4.png","","","","[""Blobby"",""Stripey""]"
"","","","","","html-slider-response","41","119424","0.0-37.0","nghpt3u3mq","NaN","<div style=""width:500px;"">
                                <p style=""font-size:50px; font-weight:bold;""
                                ></p>
                                <div style=""width:240px; margin: auto;"">
                                    <img src=""images/D68.png"" style= ""width:200px""alt=""img"">
                                </div>
                            </div>","199","","0","images/D68.png","","","","[""Blobby"",""Stripey""]"
"","","","","","html-slider-response","42","121292","0.0-38.0","nghpt3u3mq","NaN","<div style=""width:500px;"">
                                <p style=""font-size:50px; font-weight:bold;""
                                ></p>
                                <div style=""width:240px; margin: auto;"">
                                    <img src=""images/D32.png"" style= ""width:200px""alt=""img"">
                                </div>
                            </div>","-189","","0","images/D32.png","","","","[""Blobby"",""Stripey""]"
"","","","","","html-slider-response","43","122690","0.0-39.0","nghpt3u3mq","NaN","<div style=""width:500px;"">
                                <p style=""font-size:50px; font-weight:bold;""
                                ></p>
                                <div style=""width:240px; margin: auto;"">
                                    <img src=""images/D96.png"" style= ""width:200px""alt=""img"">
                                </div>
                            </div>","182","","0","images/D96.png","","","","[""Blobby"",""Stripey""]"
"","","","","","html-slider-response","44","124807","0.0-40.0","nghpt3u3mq","NaN","<div style=""width:500px;"">
                                <p style=""font-size:50px; font-weight:bold;""
                                ></p>
                                <div style=""width:240px; margin: auto;"">
                                    <img src=""images/D103.png"" style= ""width:200px""alt=""img"">
                                </div>
                            </div>","118","","0","images/D103.png","","","","[""Blobby"",""Stripey""]"
"","","","","","html-slider-response","45","126940","0.0-41.0","nghpt3u3mq","NaN","<div style=""width:500px;"">
                                <p style=""font-size:50px; font-weight:bold;""
                                ></p>
                                <div style=""width:240px; margin: auto;"">
                                    <img src=""images/D9.png"" style= ""width:200px""alt=""img"">
                                </div>
                            </div>","-194","","0","images/D9.png","","","","[""Blobby"",""Stripey""]"
"","","","","","html-slider-response","46","128356","0.0-42.0","nghpt3u3mq","NaN","<div style=""width:500px;"">
                                <p style=""font-size:50px; font-weight:bold;""
                                ></p>
                                <div style=""width:240px; margin: auto;"">
                                    <img src=""images/D94.png"" style= ""width:200px""alt=""img"">
                                </div>
                            </div>","147","","0","images/D94.png","","","","[""Blobby"",""Stripey""]"
"","","","","","html-slider-response","47","131524","0.0-43.0","nghpt3u3mq","NaN","<div style=""width:500px;"">
                                <p style=""font-size:50px; font-weight:bold;""
                                ></p>
                                <div style=""width:240px; margin: auto;"">
                                    <img src=""images/D36.png"" style= ""width:200px""alt=""img"">
                                </div>
                            </div>","47","","0","images/D36.png","","","","[""Blobby"",""Stripey""]"
"","","","","","html-slider-response","48","133107","0.0-44.0","nghpt3u3mq","NaN","<div style=""width:500px;"">
                                <p style=""font-size:50px; font-weight:bold;""
                                ></p>
                                <div style=""width:240px; margin: auto;"">
                                    <img src=""images/D105.png"" style= ""width:200px""alt=""img"">
                                </div>
                            </div>","193","","0","images/D105.png","","","","[""Blobby"",""Stripey""]"
"","","","","","html-slider-response","49","134673","0.0-45.0","nghpt3u3mq","NaN","<div style=""width:500px;"">
                                <p style=""font-size:50px; font-weight:bold;""
                                ></p>
                                <div style=""width:240px; margin: auto;"">
                                    <img src=""images/D66.png"" style= ""width:200px""alt=""img"">
                                </div>
                            </div>","-195","","0","images/D66.png","","","","[""Blobby"",""Stripey""]"
"","","","","","html-slider-response","50","136089","0.0-46.0","nghpt3u3mq","NaN","<div style=""width:500px;"">
                                <p style=""font-size:50px; font-weight:bold;""
                                ></p>
                                <div style=""width:240px; margin: auto;"">
                                    <img src=""images/D3.png"" style= ""width:200px""alt=""img"">
                                </div>
                            </div>","-198","","0","images/D3.png","","","","[""Blobby"",""Stripey""]"
"","","","","","html-slider-response","51","138339","0.0-47.0","nghpt3u3mq","NaN","<div style=""width:500px;"">
                                <p style=""font-size:50px; font-weight:bold;""
                                ></p>
                                <div style=""width:240px; margin: auto;"">
                                    <img src=""images/D22.png"" style= ""width:200px""alt=""img"">
                                </div>
                            </div>","-195","","0","images/D22.png","","","","[""Blobby"",""Stripey""]"
"","","","","","html-slider-response","52","140005","0.0-48.0","nghpt3u3mq","NaN","<div style=""width:500px;"">
                                <p style=""font-size:50px; font-weight:bold;""
                                ></p>
                                <div style=""width:240px; margin: auto;"">
                                    <img src=""images/D25.png"" style= ""width:200px""alt=""img"">
                                </div>
                            </div>","161","","0","images/D25.png","","","","[""Blobby"",""Stripey""]"
"","","","","","html-slider-response","53","141439","0.0-49.0","nghpt3u3mq","NaN","<div style=""width:500px;"">
                                <p style=""font-size:50px; font-weight:bold;""
                                ></p>
                                <div style=""width:240px; margin: auto;"">
                                    <img src=""images/D85.png"" style= ""width:200px""alt=""img"">
                                </div>
                            </div>","162","","0","images/D85.png","","","","[""Blobby"",""Stripey""]"
"","","","","","html-slider-response","54","144205","0.0-50.0","nghpt3u3mq","NaN","<div style=""width:500px;"">
                                <p style=""font-size:50px; font-weight:bold;""
                                ></p>
                                <div style=""width:240px; margin: auto;"">
                                    <img src=""images/D24.png"" style= ""width:200px""alt=""img"">
                                </div>
                            </div>","-184","","0","images/D24.png","","","","[""Blobby"",""Stripey""]"
"","","","","","html-slider-response","55","145823","0.0-51.0","nghpt3u3mq","NaN","<div style=""width:500px;"">
                                <p style=""font-size:50px; font-weight:bold;""
                                ></p>
                                <div style=""width:240px; margin: auto;"">
                                    <img src=""images/D104.png"" style= ""width:200px""alt=""img"">
                                </div>
                            </div>","168","","0","images/D104.png","","","","[""Blobby"",""Stripey""]"
"","","","","","html-slider-response","56","147789","0.0-52.0","nghpt3u3mq","NaN","<div style=""width:500px;"">
                                <p style=""font-size:50px; font-weight:bold;""
                                ></p>
                                <div style=""width:240px; margin: auto;"">
                                    <img src=""images/D21.png"" style= ""width:200px""alt=""img"">
                                </div>
                            </div>","160","","0","images/D21.png","","","","[""Blobby"",""Stripey""]"
"","","","","","html-slider-response","57","149154","0.0-53.0","nghpt3u3mq","NaN","<div style=""width:500px;"">
                                <p style=""font-size:50px; font-weight:bold;""
                                ></p>
                                <div style=""width:240px; margin: auto;"">
                                    <img src=""images/D53.png"" style= ""width:200px""alt=""img"">
                                </div>
                            </div>","166","","0","images/D53.png","","","","[""Blobby"",""Stripey""]"
"","","","","","html-slider-response","58","150688","0.0-54.0","nghpt3u3mq","NaN","<div style=""width:500px;"">
                                <p style=""font-size:50px; font-weight:bold;""
                                ></p>
                                <div style=""width:240px; margin: auto;"">
                                    <img src=""images/D102.png"" style= ""width:200px""alt=""img"">
                                </div>
                            </div>","-186","","0","images/D102.png","","","","[""Blobby"",""Stripey""]"
"","","","","","html-slider-response","59","153688","0.0-55.0","nghpt3u3mq","NaN","<div style=""width:500px;"">
                                <p style=""font-size:50px; font-weight:bold;""
                                ></p>
                                <div style=""width:240px; margin: auto;"">
                                    <img src=""images/D57.png"" style= ""width:200px""alt=""img"">
                                </div>
                            </div>","-113","","0","images/D57.png","","","","[""Blobby"",""Stripey""]"
"","","","","","html-slider-response","60","156187","0.0-56.0","nghpt3u3mq","NaN","<div style=""width:500px;"">
                                <p style=""font-size:50px; font-weight:bold;""
                                ></p>
                                <div style=""width:240px; margin: auto;"">
                                    <img src=""images/D101.png"" style= ""width:200px""alt=""img"">
                                </div>
                            </div>","109","","0","images/D101.png","","","","[""Blobby"",""Stripey""]"
"","","","","","html-slider-response","61","158488","0.0-57.0","nghpt3u3mq","NaN","<div style=""width:500px;"">
                                <p style=""font-size:50px; font-weight:bold;""
                                ></p>
                                <div style=""width:240px; margin: auto;"">
                                    <img src=""images/D65.png"" style= ""width:200px""alt=""img"">
                                </div>
                            </div>","192","","0","images/D65.png","","","","[""Blobby"",""Stripey""]"
"","","","","","html-slider-response","62","160205","0.0-58.0","nghpt3u3mq","NaN","<div style=""width:500px;"">
                                <p style=""font-size:50px; font-weight:bold;""
                                ></p>
                                <div style=""width:240px; margin: auto;"">
                                    <img src=""images/D111.png"" style= ""width:200px""alt=""img"">
                                </div>
                            </div>","-194","","0","images/D111.png","","","","[""Blobby"",""Stripey""]"
"","","","","","html-slider-response","63","162138","0.0-59.0","nghpt3u3mq","NaN","<div style=""width:500px;"">
                                <p style=""font-size:50px; font-weight:bold;""
                                ></p>
                                <div style=""width:240px; margin: auto;"">
                                    <img src=""images/D52.png"" style= ""width:200px""alt=""img"">
                                </div>
                            </div>","129","","0","images/D52.png","","","","[""Blobby"",""Stripey""]"
"","","","","","html-slider-response","64","164104","0.0-60.0","nghpt3u3mq","NaN","<div style=""width:500px;"">
                                <p style=""font-size:50px; font-weight:bold;""
                                ></p>
                                <div style=""width:240px; margin: auto;"">
                                    <img src=""images/D1.png"" style= ""width:200px""alt=""img"">
                                </div>
                            </div>","148","","0","images/D1.png","","","","[""Blobby"",""Stripey""]"
"","","","","","html-slider-response","65","166237","0.0-61.0","nghpt3u3mq","NaN","<div style=""width:500px;"">
                                <p style=""font-size:50px; font-weight:bold;""
                                ></p>
                                <div style=""width:240px; margin: auto;"">
                                    <img src=""images/D19.png"" style= ""width:200px""alt=""img"">
                                </div>
                            </div>","-184","","0","images/D19.png","","","","[""Blobby"",""Stripey""]"
"","","","","","html-slider-response","66","170053","0.0-62.0","nghpt3u3mq","NaN","<div style=""width:500px;"">
                                <p style=""font-size:50px; font-weight:bold;""
                                ></p>
                                <div style=""width:240px; margin: auto;"">
                                    <img src=""images/D35.png"" style= ""width:200px""alt=""img"">
                                </div>
                            </div>","103","","0","images/D35.png","","","","[""Blobby"",""Stripey""]"
"","","","","","html-slider-response","67","171703","0.0-63.0","nghpt3u3mq","NaN","<div style=""width:500px;"">
                                <p style=""font-size:50px; font-weight:bold;""
                                ></p>
                                <div style=""width:240px; margin: auto;"">
                                    <img src=""images/D74.png"" style= ""width:200px""alt=""img"">
                                </div>
                            </div>","-186","","0","images/D74.png","","","","[""Blobby"",""Stripey""]"
"","","","","","html-slider-response","68","173287","0.0-64.0","nghpt3u3mq","NaN","<div style=""width:500px;"">
                                <p style=""font-size:50px; font-weight:bold;""
                                ></p>
                                <div style=""width:240px; margin: auto;"">
                                    <img src=""images/D106.png"" style= ""width:200px""alt=""img"">
                                </div>
                            </div>","119","","0","images/D106.png","","","","[""Blobby"",""Stripey""]"
"","","","","","html-slider-response","69","176402","0.0-65.0","nghpt3u3mq","NaN","<div style=""width:500px;"">
                                <p style=""font-size:50px; font-weight:bold;""
                                ></p>
                                <div style=""width:240px; margin: auto;"">
                                    <img src=""images/D55.png"" style= ""width:200px""alt=""img"">
                                </div>
                            </div>","33","","0","images/D55.png","","","","[""Blobby"",""Stripey""]"
"","","","","","html-slider-response","70","179685","0.0-66.0","nghpt3u3mq","NaN","<div style=""width:500px;"">
                                <p style=""font-size:50px; font-weight:bold;""
                                ></p>
                                <div style=""width:240px; margin: auto;"">
                                    <img src=""images/D34.png"" style= ""width:200px""alt=""img"">
                                </div>
                            </div>","61","","0","images/D34.png","","","","[""Blobby"",""Stripey""]"
"","","","","","html-slider-response","71","182668","0.0-67.0","nghpt3u3mq","NaN","<div style=""width:500px;"">
                                <p style=""font-size:50px; font-weight:bold;""
                                ></p>
                                <div style=""width:240px; margin: auto;"">
                                    <img src=""images/D16.png"" style= ""width:200px""alt=""img"">
                                </div>
                            </div>","95","","0","images/D16.png","","","","[""Blobby"",""Stripey""]"
"","","","","","html-slider-response","72","184785","0.0-68.0","nghpt3u3mq","NaN","<div style=""width:500px;"">
                                <p style=""font-size:50px; font-weight:bold;""
                                ></p>
                                <div style=""width:240px; margin: auto;"">
                                    <img src=""images/D92.png"" style= ""width:200px""alt=""img"">
                                </div>
                            </div>","-116","","0","images/D92.png","","","","[""Blobby"",""Stripey""]"
"","","","","","html-slider-response","73","187717","0.0-69.0","nghpt3u3mq","NaN","<div style=""width:500px;"">
                                <p style=""font-size:50px; font-weight:bold;""
                                ></p>
                                <div style=""width:240px; margin: auto;"">
                                    <img src=""images/D18.png"" style= ""width:200px""alt=""img"">
                                </div>
                            </div>","42","","0","images/D18.png","","","","[""Blobby"",""Stripey""]"
"","","","","","html-slider-response","74","191017","0.0-70.0","nghpt3u3mq","NaN","<div style=""width:500px;"">
                                <p style=""font-size:50px; font-weight:bold;""
                                ></p>
                                <div style=""width:240px; margin: auto;"">
                                    <img src=""images/D11.png"" style= ""width:200px""alt=""img"">
                                </div>
                            </div>","170","","0","images/D11.png","","","","[""Blobby"",""Stripey""]"
"","","","","","html-slider-response","75","192635","0.0-71.0","nghpt3u3mq","NaN","<div style=""width:500px;"">
                                <p style=""font-size:50px; font-weight:bold;""
                                ></p>
                                <div style=""width:240px; margin: auto;"">
                                    <img src=""images/D47.png"" style= ""width:200px""alt=""img"">
                                </div>
                            </div>","194","","0","images/D47.png","","","","[""Blobby"",""Stripey""]"
"","","","","","html-slider-response","76","200650","0.0-72.0","nghpt3u3mq","NaN","<div style=""width:500px;"">
                                <p style=""font-size:50px; font-weight:bold;""
                                ></p>
                                <div style=""width:240px; margin: auto;"">
                                    <img src=""images/D17.png"" style= ""width:200px""alt=""img"">
                                </div>
                            </div>","55","","0","images/D17.png","","","","[""Blobby"",""Stripey""]"
"","","","","","html-slider-response","77","204999","0.0-73.0","nghpt3u3mq","NaN","<div style=""width:500px;"">
                                <p style=""font-size:50px; font-weight:bold;""
                                ></p>
                                <div style=""width:240px; margin: auto;"">
                                    <img src=""images/D77.png"" style= ""width:200px""alt=""img"">
                                </div>
                            </div>","47","","0","images/D77.png","","","","[""Blobby"",""Stripey""]"
"","","","","","html-slider-response","78","206667","0.0-74.0","nghpt3u3mq","NaN","<div style=""width:500px;"">
                                <p style=""font-size:50px; font-weight:bold;""
                                ></p>
                                <div style=""width:240px; margin: auto;"">
                                    <img src=""images/D78.png"" style= ""width:200px""alt=""img"">
                                </div>
                            </div>","148","","0","images/D78.png","","","","[""Blobby"",""Stripey""]"
"","","","","","html-slider-response","79","208883","0.0-75.0","nghpt3u3mq","NaN","<div style=""width:500px;"">
                                <p style=""font-size:50px; font-weight:bold;""
                                ></p>
                                <div style=""width:240px; margin: auto;"">
                                    <img src=""images/D82.png"" style= ""width:200px""alt=""img"">
                                </div>
                            </div>","93","","0","images/D82.png","","","","[""Blobby"",""Stripey""]"
"","","","","","html-button-response","80","212704","0.0-76.0","nghpt3u3mq","3318","You have completed the first block of trials out of six. Please click 'Continue' when you are ready proceed.","0","","","","","","",""
"","","","","","html-button-response","81","214337","0.0-77.0","nghpt3u3mq","1632","In the following trials, you will be asked to rate textures on the scale <b>Coarse</b> versus <b>Fine</b>. Please click 'Continue' when you are ready proceed.","0","","","","","","",""
"","","","","","html-slider-response","82","217981","0.0-78.0","nghpt3u3mq","NaN","<div style=""width:500px;"">
                                <p style=""font-size:50px; font-weight:bold;""
                                ></p>
                                <div style=""width:240px; margin: auto;"">
                                    <img src=""images/D76.png"" style= ""width:200px""alt=""img"">
                                </div>
                            </div>","-124","","0","images/D76.png","","","","[""Coarse"",""Fine""]"
"","","","","","html-slider-response","83","221164","0.0-79.0","nghpt3u3mq","NaN","<div style=""width:500px;"">
                                <p style=""font-size:50px; font-weight:bold;""
                                ></p>
                                <div style=""width:240px; margin: auto;"">
                                    <img src=""images/D20.png"" style= ""width:200px""alt=""img"">
                                </div>
                            </div>","127","","0","images/D20.png","","","","[""Coarse"",""Fine""]"
"","","","","","html-slider-response","84","222814","0.0-80.0","nghpt3u3mq","NaN","<div style=""width:500px;"">
                                <p style=""font-size:50px; font-weight:bold;""
                                ></p>
                                <div style=""width:240px; margin: auto;"">
                                    <img src=""images/D29.png"" style= ""width:200px""alt=""img"">
                                </div>
                            </div>","-186","","0","images/D29.png","","","","[""Coarse"",""Fine""]"
"","","","","","html-slider-response","85","227747","0.0-81.0","nghpt3u3mq","NaN","<div style=""width:500px;"">
                                <p style=""font-size:50px; font-weight:bold;""
                                ></p>
                                <div style=""width:240px; margin: auto;"">
                                    <img src=""images/D26.png"" style= ""width:200px""alt=""img"">
                                </div>
                            </div>","102","","0","images/D26.png","","","","[""Coarse"",""Fine""]"
"","","","","","html-slider-response","86","230280","0.0-82.0","nghpt3u3mq","NaN","<div style=""width:500px;"">
                                <p style=""font-size:50px; font-weight:bold;""
                                ></p>
                                <div style=""width:240px; margin: auto;"">
                                    <img src=""images/D51.png"" style= ""width:200px""alt=""img"">
                                </div>
                            </div>","151","","0","images/D51.png","","","","[""Coarse"",""Fine""]"
"","","","","","html-slider-response","87","232246","0.0-83.0","nghpt3u3mq","NaN","<div style=""width:500px;"">
                                <p style=""font-size:50px; font-weight:bold;""
                                ></p>
                                <div style=""width:240px; margin: auto;"">
                                    <img src=""images/D81.png"" style= ""width:200px""alt=""img"">
                                </div>
                            </div>","-187","","0","images/D81.png","","","","[""Coarse"",""Fine""]"
"","","","","","html-slider-response","88","233830","0.0-84.0","nghpt3u3mq","NaN","<div style=""width:500px;"">
                                <p style=""font-size:50px; font-weight:bold;""
                                ></p>
                                <div style=""width:240px; margin: auto;"">
                                    <img src=""images/D14.png"" style= ""width:200px""alt=""img"">
                                </div>
                            </div>","-161","","0","images/D14.png","","","","[""Coarse"",""Fine""]"
"","","","","","html-slider-response","89","235947","0.0-85.0","nghpt3u3mq","NaN","<div style=""width:500px;"">
                                <p style=""font-size:50px; font-weight:bold;""
                                ></p>
                                <div style=""width:240px; margin: auto;"">
                                    <img src=""images/D75.png"" style= ""width:200px""alt=""img"">
                                </div>
                            </div>","128","","0","images/D75.png","","","","[""Coarse"",""Fine""]"
"","","","","","html-slider-response","90","238246","0.0-86.0","nghpt3u3mq","NaN","<div style=""width:500px;"">
                                <p style=""font-size:50px; font-weight:bold;""
                                ></p>
                                <div style=""width:240px; margin: auto;"">
                                    <img src=""images/D95.png"" style= ""width:200px""alt=""img"">
                                </div>
                            </div>","123","","0","images/D95.png","","","","[""Coarse"",""Fine""]"
"","","","","","html-slider-response","91","241080","0.0-87.0","nghpt3u3mq","NaN","<div style=""width:500px;"">
                                <p style=""font-size:50px; font-weight:bold;""
                                ></p>
                                <div style=""width:240px; margin: auto;"">
                                    <img src=""images/D83.png"" style= ""width:200px""alt=""img"">
                                </div>
                            </div>","198","","0","images/D83.png","","","","[""Coarse"",""Fine""]"
"","","","","","html-slider-response","92","243129","0.0-88.0","nghpt3u3mq","NaN","<div style=""width:500px;"">
                                <p style=""font-size:50px; font-weight:bold;""
                                ></p>
                                <div style=""width:240px; margin: auto;"">
                                    <img src=""images/D80.png"" style= ""width:200px""alt=""img"">
                                </div>
                            </div>","-186","","0","images/D80.png","","","","[""Coarse"",""Fine""]"
"","","","","","html-slider-response","93","245579","0.0-89.0","nghpt3u3mq","NaN","<div style=""width:500px;"">
                                <p style=""font-size:50px; font-weight:bold;""
                                ></p>
                                <div style=""width:240px; margin: auto;"">
                                    <img src=""images/D79.png"" style= ""width:200px""alt=""img"">
                                </div>
                            </div>","-189","","0","images/D79.png","","","","[""Coarse"",""Fine""]"
"","","","","","html-slider-response","94","247662","0.0-90.0","nghpt3u3mq","NaN","<div style=""width:500px;"">
                                <p style=""font-size:50px; font-weight:bold;""
                                ></p>
                                <div style=""width:240px; margin: auto;"">
                                    <img src=""images/D8.png"" style= ""width:200px""alt=""img"">
                                </div>
                            </div>","110","","0","images/D8.png","","","","[""Coarse"",""Fine""]"
"","","","","","html-slider-response","95","249229","0.0-91.0","nghpt3u3mq","NaN","<div style=""width:500px;"">
                                <p style=""font-size:50px; font-weight:bold;""
                                ></p>
                                <div style=""width:240px; margin: auto;"">
                                    <img src=""images/D84.png"" style= ""width:200px""alt=""img"">
                                </div>
                            </div>","-186","","0","images/D84.png","","","","[""Coarse"",""Fine""]"
"","","","","","html-slider-response","96","250961","0.0-92.0","nghpt3u3mq","NaN","<div style=""width:500px;"">
                                <p style=""font-size:50px; font-weight:bold;""
                                ></p>
                                <div style=""width:240px; margin: auto;"">
                                    <img src=""images/D64.png"" style= ""width:200px""alt=""img"">
                                </div>
                            </div>","118","","0","images/D64.png","","","","[""Coarse"",""Fine""]"
"","","","","","html-slider-response","97","252595","0.0-93.0","nghpt3u3mq","NaN","<div style=""width:500px;"">
                                <p style=""font-size:50px; font-weight:bold;""
                                ></p>
                                <div style=""width:240px; margin: auto;"">
                                    <img src=""images/D87.png"" style= ""width:200px""alt=""img"">
                                </div>
                            </div>","-150","","0","images/D87.png","","","","[""Coarse"",""Fine""]"
"","","","","","html-slider-response","98","254629","0.0-94.0","nghpt3u3mq","NaN","<div style=""width:500px;"">
                                <p style=""font-size:50px; font-weight:bold;""
                                ></p>
                                <div style=""width:240px; margin: auto;"">
                                    <img src=""images/D46.png"" style= ""width:200px""alt=""img"">
                                </div>
                            </div>","187","","0","images/D46.png","","","","[""Coarse"",""Fine""]"
"","","","","","html-slider-response","99","256294","0.0-95.0","nghpt3u3mq","NaN","<div style=""width:500px;"">
                                <p style=""font-size:50px; font-weight:bold;""
                                ></p>
                                <div style=""width:240px; margin: auto;"">
                                    <img src=""images/D56.png"" style= ""width:200px""alt=""img"">
                                </div>
                            </div>","200","","0","images/D56.png","","","","[""Coarse"",""Fine""]"
"","","","","","html-slider-response","100","258729","0.0-96.0","nghpt3u3mq","NaN","<div style=""width:500px;"">
                                <p style=""font-size:50px; font-weight:bold;""
                                ></p>
                                <div style=""width:240px; margin: auto;"">
                                    <img src=""images/D6.png"" style= ""width:200px""alt=""img"">
                                </div>
                            </div>","-46","","0","images/D6.png","","","","[""Coarse"",""Fine""]"
"","","","","","html-slider-response","101","260578","0.0-97.0","nghpt3u3mq","NaN","<div style=""width:500px;"">
                                <p style=""font-size:50px; font-weight:bold;""
                                ></p>
                                <div style=""width:240px; margin: auto;"">
                                    <img src=""images/D48.png"" style= ""width:200px""alt=""img"">
                                </div>
                            </div>","197","","0","images/D48.png","","","","[""Coarse"",""Fine""]"
"","","","","","html-slider-response","102","263844","0.0-98.0","nghpt3u3mq","NaN","<div style=""width:500px;"">
                                <p style=""font-size:50px; font-weight:bold;""
                                ></p>
                                <div style=""width:240px; margin: auto;"">
                                    <img src=""images/D37.png"" style= ""width:200px""alt=""img"">
                                </div>
                            </div>","-26","","0","images/D37.png","","","","[""Coarse"",""Fine""]"
"","","","","","html-slider-response","103","266044","0.0-99.0","nghpt3u3mq","NaN","<div style=""width:500px;"">
                                <p style=""font-size:50px; font-weight:bold;""
                                ></p>
                                <div style=""width:240px; margin: auto;"">
                                    <img src=""images/D49.png"" style= ""width:200px""alt=""img"">
                                </div>
                            </div>","150","","0","images/D49.png","","","","[""Coarse"",""Fine""]"
"","","","","","html-slider-response","104","268160","0.0-100.0","nghpt3u3mq","NaN","<div style=""width:500px;"">
                                <p style=""font-size:50px; font-weight:bold;""
                                ></p>
                                <div style=""width:240px; margin: auto;"">
                                    <img src=""images/D4.png"" style= ""width:200px""alt=""img"">
                                </div>
                            </div>","-184","","0","images/D4.png","","","","[""Coarse"",""Fine""]"
"","","","","","html-slider-response","105","270593","0.0-101.0","nghpt3u3mq","NaN","<div style=""width:500px;"">
                                <p style=""font-size:50px; font-weight:bold;""
                                ></p>
                                <div style=""width:240px; margin: auto;"">
                                    <img src=""images/D68.png"" style= ""width:200px""alt=""img"">
                                </div>
                            </div>","-72","","0","images/D68.png","","","","[""Coarse"",""Fine""]"
"","","","","","html-slider-response","106","272109","0.0-102.0","nghpt3u3mq","NaN","<div style=""width:500px;"">
                                <p style=""font-size:50px; font-weight:bold;""
                                ></p>
                                <div style=""width:240px; margin: auto;"">
                                    <img src=""images/D32.png"" style= ""width:200px""alt=""img"">
                                </div>
                            </div>","-198","","0","images/D32.png","","","","[""Coarse"",""Fine""]"
"","","","","","html-slider-response","107","274310","0.0-103.0","nghpt3u3mq","NaN","<div style=""width:500px;"">
                                <p style=""font-size:50px; font-weight:bold;""
                                ></p>
                                <div style=""width:240px; margin: auto;"">
                                    <img src=""images/D96.png"" style= ""width:200px""alt=""img"">
                                </div>
                            </div>","-190","","0","images/D96.png","","","","[""Coarse"",""Fine""]"
"","","","","","html-slider-response","108","276226","0.0-104.0","nghpt3u3mq","NaN","<div style=""width:500px;"">
                                <p style=""font-size:50px; font-weight:bold;""
                                ></p>
                                <div style=""width:240px; margin: auto;"">
                                    <img src=""images/D103.png"" style= ""width:200px""alt=""img"">
                                </div>
                            </div>","-195","","0","images/D103.png","","","","[""Coarse"",""Fine""]"
"","","","","","html-slider-response","109","277592","0.0-105.0","nghpt3u3mq","NaN","<div style=""width:500px;"">
                                <p style=""font-size:50px; font-weight:bold;""
                                ></p>
                                <div style=""width:240px; margin: auto;"">
                                    <img src=""images/D9.png"" style= ""width:200px""alt=""img"">
                                </div>
                            </div>","-188","","0","images/D9.png","","","","[""Coarse"",""Fine""]"
"","","","","","html-slider-response","110","279476","0.0-106.0","nghpt3u3mq","NaN","<div style=""width:500px;"">
                                <p style=""font-size:50px; font-weight:bold;""
                                ></p>
                                <div style=""width:240px; margin: auto;"">
                                    <img src=""images/D94.png"" style= ""width:200px""alt=""img"">
                                </div>
                            </div>","27","","0","images/D94.png","","","","[""Coarse"",""Fine""]"
"","","","","","html-slider-response","111","282094","0.0-107.0","nghpt3u3mq","NaN","<div style=""width:500px;"">
                                <p style=""font-size:50px; font-weight:bold;""
                                ></p>
                                <div style=""width:240px; margin: auto;"">
                                    <img src=""images/D36.png"" style= ""width:200px""alt=""img"">
                                </div>
                            </div>","-106","","0","images/D36.png","","","","[""Coarse"",""Fine""]"
"","","","","","html-slider-response","112","283809","0.0-108.0","nghpt3u3mq","NaN","<div style=""width:500px;"">
                                <p style=""font-size:50px; font-weight:bold;""
                                ></p>
                                <div style=""width:240px; margin: auto;"">
                                    <img src=""images/D105.png"" style= ""width:200px""alt=""img"">
                                </div>
                            </div>","117","","0","images/D105.png","","","","[""Coarse"",""Fine""]"
"","","","","","html-slider-response","113","287291","0.0-109.0","nghpt3u3mq","NaN","<div style=""width:500px;"">
                                <p style=""font-size:50px; font-weight:bold;""
                                ></p>
                                <div style=""width:240px; margin: auto;"">
                                    <img src=""images/D66.png"" style= ""width:200px""alt=""img"">
                                </div>
                            </div>","-36","","0","images/D66.png","","","","[""Coarse"",""Fine""]"
"","","","","","html-slider-response","114","288927","0.0-110.0","nghpt3u3mq","NaN","<div style=""width:500px;"">
                                <p style=""font-size:50px; font-weight:bold;""
                                ></p>
                                <div style=""width:240px; margin: auto;"">
                                    <img src=""images/D3.png"" style= ""width:200px""alt=""img"">
                                </div>
                            </div>","-121","","0","images/D3.png","","","","[""Coarse"",""Fine""]"
"","","","","","html-slider-response","115","290358","0.0-111.0","nghpt3u3mq","NaN","<div style=""width:500px;"">
                                <p style=""font-size:50px; font-weight:bold;""
                                ></p>
                                <div style=""width:240px; margin: auto;"">
                                    <img src=""images/D22.png"" style= ""width:200px""alt=""img"">
                                </div>
                            </div>","-114","","0","images/D22.png","","","","[""Coarse"",""Fine""]"
"","","","","","html-slider-response","116","292475","0.0-112.0","nghpt3u3mq","NaN","<div style=""width:500px;"">
                                <p style=""font-size:50px; font-weight:bold;""
                                ></p>
                                <div style=""width:240px; margin: auto;"">
                                    <img src=""images/D25.png"" style= ""width:200px""alt=""img"">
                                </div>
                            </div>","-45","","0","images/D25.png","","","","[""Coarse"",""Fine""]"
"","","","","","html-slider-response","117","294542","0.0-113.0","nghpt3u3mq","NaN","<div style=""width:500px;"">
                                <p style=""font-size:50px; font-weight:bold;""
                                ></p>
                                <div style=""width:240px; margin: auto;"">
                                    <img src=""images/D85.png"" style= ""width:200px""alt=""img"">
                                </div>
                            </div>","-113","","0","images/D85.png","","","","[""Coarse"",""Fine""]"
"","","","","","html-slider-response","118","296158","0.0-114.0","nghpt3u3mq","NaN","<div style=""width:500px;"">
                                <p style=""font-size:50px; font-weight:bold;""
                                ></p>
                                <div style=""width:240px; margin: auto;"">
                                    <img src=""images/D24.png"" style= ""width:200px""alt=""img"">
                                </div>
                            </div>","-132","","0","images/D24.png","","","","[""Coarse"",""Fine""]"
"","","","","","html-slider-response","119","297640","0.0-115.0","nghpt3u3mq","NaN","<div style=""width:500px;"">
                                <p style=""font-size:50px; font-weight:bold;""
                                ></p>
                                <div style=""width:240px; margin: auto;"">
                                    <img src=""images/D104.png"" style= ""width:200px""alt=""img"">
                                </div>
                            </div>","-140","","0","images/D104.png","","","","[""Coarse"",""Fine""]"
"","","","","","html-slider-response","120","298841","0.0-116.0","nghpt3u3mq","NaN","<div style=""width:500px;"">
                                <p style=""font-size:50px; font-weight:bold;""
                                ></p>
                                <div style=""width:240px; margin: auto;"">
                                    <img src=""images/D21.png"" style= ""width:200px""alt=""img"">
                                </div>
                            </div>","-133","","0","images/D21.png","","","","[""Coarse"",""Fine""]"
"","","","","","html-slider-response","121","300425","0.0-117.0","nghpt3u3mq","NaN","<div style=""width:500px;"">
                                <p style=""font-size:50px; font-weight:bold;""
                                ></p>
                                <div style=""width:240px; margin: auto;"">
                                    <img src=""images/D53.png"" style= ""width:200px""alt=""img"">
                                </div>
                            </div>","-127","","0","images/D53.png","","","","[""Coarse"",""Fine""]"
"","","","","","html-slider-response","122","303575","0.0-118.0","nghpt3u3mq","NaN","<div style=""width:500px;"">
                                <p style=""font-size:50px; font-weight:bold;""
                                ></p>
                                <div style=""width:240px; margin: auto;"">
                                    <img src=""images/D102.png"" style= ""width:200px""alt=""img"">
                                </div>
                            </div>","78","","0","images/D102.png","","","","[""Coarse"",""Fine""]"
"","","","","","html-slider-response","123","310455","0.0-119.0","nghpt3u3mq","NaN","<div style=""width:500px;"">
                                <p style=""font-size:50px; font-weight:bold;""
                                ></p>
                                <div style=""width:240px; margin: auto;"">
                                    <img src=""images/D57.png"" style= ""width:200px""alt=""img"">
                                </div>
                            </div>","-197","","0","images/D57.png","","","","[""Coarse"",""Fine""]"
"","","","","","html-slider-response","124","313540","0.0-120.0","nghpt3u3mq","NaN","<div style=""width:500px;"">
                                <p style=""font-size:50px; font-weight:bold;""
                                ></p>
                                <div style=""width:240px; margin: auto;"">
                                    <img src=""images/D101.png"" style= ""width:200px""alt=""img"">
                                </div>
                            </div>","-26","","0","images/D101.png","","","","[""Coarse"",""Fine""]"
"","","","","","html-slider-response","125","315222","0.0-121.0","nghpt3u3mq","NaN","<div style=""width:500px;"">
                                <p style=""font-size:50px; font-weight:bold;""
                                ></p>
                                <div style=""width:240px; margin: auto;"">
                                    <img src=""images/D65.png"" style= ""width:200px""alt=""img"">
                                </div>
                            </div>","-46","","0","images/D65.png","","","","[""Coarse"",""Fine""]"
"","","","","","html-slider-response","126","316620","0.0-122.0","nghpt3u3mq","NaN","<div style=""width:500px;"">
                                <p style=""font-size:50px; font-weight:bold;""
                                ></p>
                                <div style=""width:240px; margin: auto;"">
                                    <img src=""images/D111.png"" style= ""width:200px""alt=""img"">
                                </div>
                            </div>","-125","","0","images/D111.png","","","","[""Coarse"",""Fine""]"
"","","","","","html-slider-response","127","318455","0.0-123.0","nghpt3u3mq","NaN","<div style=""width:500px;"">
                                <p style=""font-size:50px; font-weight:bold;""
                                ></p>
                                <div style=""width:240px; margin: auto;"">
                                    <img src=""images/D52.png"" style= ""width:200px""alt=""img"">
                                </div>
                            </div>","-175","","0","images/D52.png","","","","[""Coarse"",""Fine""]"
"","","","","","html-slider-response","128","320239","0.0-124.0","nghpt3u3mq","NaN","<div style=""width:500px;"">
                                <p style=""font-size:50px; font-weight:bold;""
                                ></p>
                                <div style=""width:240px; margin: auto;"">
                                    <img src=""images/D1.png"" style= ""width:200px""alt=""img"">
                                </div>
                            </div>","90","","0","images/D1.png","","","","[""Coarse"",""Fine""]"
"","","","","","html-slider-response","129","321638","0.0-125.0","nghpt3u3mq","NaN","<div style=""width:500px;"">
                                <p style=""font-size:50px; font-weight:bold;""
                                ></p>
                                <div style=""width:240px; margin: auto;"">
                                    <img src=""images/D19.png"" style= ""width:200px""alt=""img"">
                                </div>
                            </div>","-194","","0","images/D19.png","","","","[""Coarse"",""Fine""]"
"","","","","","html-slider-response","130","322906","0.0-126.0","nghpt3u3mq","NaN","<div style=""width:500px;"">
                                <p style=""font-size:50px; font-weight:bold;""
                                ></p>
                                <div style=""width:240px; margin: auto;"">
                                    <img src=""images/D35.png"" style= ""width:200px""alt=""img"">
                                </div>
                            </div>","-166","","0","images/D35.png","","","","[""Coarse"",""Fine""]"
"","","","","","html-slider-response","131","323989","0.0-127.0","nghpt3u3mq","NaN","<div style=""width:500px;"">
                                <p style=""font-size:50px; font-weight:bold;""
                                ></p>
                                <div style=""width:240px; margin: auto;"">
                                    <img src=""images/D74.png"" style= ""width:200px""alt=""img"">
                                </div>
                            </div>","-159","","0","images/D74.png","","","","[""Coarse"",""Fine""]"
"","","","","","html-slider-response","132","325721","0.0-128.0","nghpt3u3mq","NaN","<div style=""width:500px;"">
                                <p style=""font-size:50px; font-weight:bold;""
                                ></p>
                                <div style=""width:240px; margin: auto;"">
                                    <img src=""images/D106.png"" style= ""width:200px""alt=""img"">
                                </div>
                            </div>","109","","0","images/D106.png","","","","[""Coarse"",""Fine""]"
"","","","","","html-slider-response","133","328154","0.0-129.0","nghpt3u3mq","NaN","<div style=""width:500px;"">
                                <p style=""font-size:50px; font-weight:bold;""
                                ></p>
                                <div style=""width:240px; margin: auto;"">
                                    <img src=""images/D55.png"" style= ""width:200px""alt=""img"">
                                </div>
                            </div>","-99","","0","images/D55.png","","","","[""Coarse"",""Fine""]"
"","","","","","html-slider-response","134","330204","0.0-130.0","nghpt3u3mq","NaN","<div style=""width:500px;"">
                                <p style=""font-size:50px; font-weight:bold;""
                                ></p>
                                <div style=""width:240px; margin: auto;"">
                                    <img src=""images/D34.png"" style= ""width:200px""alt=""img"">
                                </div>
                            </div>","-75","","0","images/D34.png","","","","[""Coarse"",""Fine""]"
"","","","","","html-slider-response","135","332137","0.0-131.0","nghpt3u3mq","NaN","<div style=""width:500px;"">
                                <p style=""font-size:50px; font-weight:bold;""
                                ></p>
                                <div style=""width:240px; margin: auto;"">
                                    <img src=""images/D16.png"" style= ""width:200px""alt=""img"">
                                </div>
                            </div>","91","","0","images/D16.png","","","","[""Coarse"",""Fine""]"
"","","","","","html-slider-response","136","333720","0.0-132.0","nghpt3u3mq","NaN","<div style=""width:500px;"">
                                <p style=""font-size:50px; font-weight:bold;""
                                ></p>
                                <div style=""width:240px; margin: auto;"">
                                    <img src=""images/D92.png"" style= ""width:200px""alt=""img"">
                                </div>
                            </div>","-200","","0","images/D92.png","","","","[""Coarse"",""Fine""]"
"","","","","","html-slider-response","137","335003","0.0-133.0","nghpt3u3mq","NaN","<div style=""width:500px;"">
                                <p style=""font-size:50px; font-weight:bold;""
                                ></p>
                                <div style=""width:240px; margin: auto;"">
                                    <img src=""images/D18.png"" style= ""width:200px""alt=""img"">
                                </div>
                            </div>","-188","","0","images/D18.png","","","","[""Coarse"",""Fine""]"
"","","","","","html-slider-response","138","346835","0.0-134.0","nghpt3u3mq","NaN","<div style=""width:500px;"">
                                <p style=""font-size:50px; font-weight:bold;""
                                ></p>
                                <div style=""width:240px; margin: auto;"">
                                    <img src=""images/D11.png"" style= ""width:200px""alt=""img"">
                                </div>
                            </div>","-183","","0","images/D11.png","","","","[""Coarse"",""Fine""]"
"","","","","","html-slider-response","139","348903","0.0-135.0","nghpt3u3mq","NaN","<div style=""width:500px;"">
                                <p style=""font-size:50px; font-weight:bold;""
                                ></p>
                                <div style=""width:240px; margin: auto;"">
                                    <img src=""images/D47.png"" style= ""width:200px""alt=""img"">
                                </div>
                            </div>","178","","0","images/D47.png","","","","[""Coarse"",""Fine""]"
"","","","","","html-slider-response","140","350286","0.0-136.0","nghpt3u3mq","NaN","<div style=""width:500px;"">
                                <p style=""font-size:50px; font-weight:bold;""
                                ></p>
                                <div style=""width:240px; margin: auto;"">
                                    <img src=""images/D17.png"" style= ""width:200px""alt=""img"">
                                </div>
                            </div>","-182","","0","images/D17.png","","","","[""Coarse"",""Fine""]"
"","","","","","html-slider-response","141","351417","0.0-137.0","nghpt3u3mq","NaN","<div style=""width:500px;"">
                                <p style=""font-size:50px; font-weight:bold;""
                                ></p>
                                <div style=""width:240px; margin: auto;"">
                                    <img src=""images/D77.png"" style= ""width:200px""alt=""img"">
                                </div>
                            </div>","-193","","0","images/D77.png","","","","[""Coarse"",""Fine""]"
"","","","","","html-slider-response","142","352785","0.0-138.0","nghpt3u3mq","NaN","<div style=""width:500px;"">
                                <p style=""font-size:50px; font-weight:bold;""
                                ></p>
                                <div style=""width:240px; margin: auto;"">
                                    <img src=""images/D78.png"" style= ""width:200px""alt=""img"">
                                </div>
                            </div>","118","","0","images/D78.png","","","","[""Coarse"",""Fine""]"
"","","","","","html-slider-response","143","354002","0.0-139.0","nghpt3u3mq","NaN","<div style=""width:500px;"">
                                <p style=""font-size:50px; font-weight:bold;""
                                ></p>
                                <div style=""width:240px; margin: auto;"">
                                    <img src=""images/D82.png"" style= ""width:200px""alt=""img"">
                                </div>
                            </div>","-189","","0","images/D82.png","","","","[""Coarse"",""Fine""]"
"","","","","","html-button-response","144","356591","0.0-140.0","nghpt3u3mq","2086","You have completed the second block of trials out of six. Please click 'Continue' when you are ready proceed.","0","","","","","","",""
"","","","","","html-button-response","145","357807","0.0-141.0","nghpt3u3mq","1214","In the following trials, you will be asked to rate textures on the scale <b>Hard</b> versus <b>Soft</b>. Please click 'Continue' when you are ready proceed.","0","","","","","","",""
"","","","","","html-slider-response","146","359019","0.0-142.0","nghpt3u3mq","NaN","<div style=""width:500px;"">
                                <p style=""font-size:50px; font-weight:bold;""
                                ></p>
                                <div style=""width:240px; margin: auto;"">
                                    <img src=""images/D48.png"" style= ""width:200px""alt=""img"">
                                </div>
                            </div>","198","","0","images/D48.png","","","","[""Hard"",""Soft""]"
"","","","","","html-slider-response","147","361400","0.0-143.0","nghpt3u3mq","NaN","<div style=""width:500px;"">
                                <p style=""font-size:50px; font-weight:bold;""
                                ></p>
                                <div style=""width:240px; margin: auto;"">
                                    <img src=""images/D85.png"" style= ""width:200px""alt=""img"">
                                </div>
                            </div>","-191","","0","images/D85.png","","","","[""Hard"",""Soft""]"
"","","","","","html-slider-response","148","363451","0.0-144.0","nghpt3u3mq","NaN","<div style=""width:500px;"">
                                <p style=""font-size:50px; font-weight:bold;""
                                ></p>
                                <div style=""width:240px; margin: auto;"">
                                    <img src=""images/D78.png"" style= ""width:200px""alt=""img"">
                                </div>
                            </div>","-192","","0","images/D78.png","","","","[""Hard"",""Soft""]"
"","","","","","html-slider-response","149","365534","0.0-145.0","nghpt3u3mq","NaN","<div style=""width:500px;"">
                                <p style=""font-size:50px; font-weight:bold;""
                                ></p>
                                <div style=""width:240px; margin: auto;"">
                                    <img src=""images/D53.png"" style= ""width:200px""alt=""img"">
                                </div>
                            </div>","-200","","0","images/D53.png","","","","[""Hard"",""Soft""]"
"","","","","","html-slider-response","150","367434","0.0-146.0","nghpt3u3mq","NaN","<div style=""width:500px;"">
                                <p style=""font-size:50px; font-weight:bold;""
                                ></p>
                                <div style=""width:240px; margin: auto;"">
                                    <img src=""images/D29.png"" style= ""width:200px""alt=""img"">
                                </div>
                            </div>","-194","","0","images/D29.png","","","","[""Hard"",""Soft""]"
"","","","","","html-slider-response","151","368783","0.0-147.0","nghpt3u3mq","NaN","<div style=""width:500px;"">
                                <p style=""font-size:50px; font-weight:bold;""
                                ></p>
                                <div style=""width:240px; margin: auto;"">
                                    <img src=""images/D57.png"" style= ""width:200px""alt=""img"">
                                </div>
                            </div>","-199","","0","images/D57.png","","","","[""Hard"",""Soft""]"
"","","","","","html-slider-response","152","370001","0.0-148.0","nghpt3u3mq","NaN","<div style=""width:500px;"">
                                <p style=""font-size:50px; font-weight:bold;""
                                ></p>
                                <div style=""width:240px; margin: auto;"">
                                    <img src=""images/D87.png"" style= ""width:200px""alt=""img"">
                                </div>
                            </div>","-194","","0","images/D87.png","","","","[""Hard"",""Soft""]"
"","","","","","html-slider-response","153","371749","0.0-149.0","nghpt3u3mq","NaN","<div style=""width:500px;"">
                                <p style=""font-size:50px; font-weight:bold;""
                                ></p>
                                <div style=""width:240px; margin: auto;"">
                                    <img src=""images/D26.png"" style= ""width:200px""alt=""img"">
                                </div>
                            </div>","-196","","0","images/D26.png","","","","[""Hard"",""Soft""]"
"","","","","","html-slider-response","154","373166","0.0-150.0","nghpt3u3mq","NaN","<div style=""width:500px;"">
                                <p style=""font-size:50px; font-weight:bold;""
                                ></p>
                                <div style=""width:240px; margin: auto;"">
                                    <img src=""images/D11.png"" style= ""width:200px""alt=""img"">
                                </div>
                            </div>","-182","","0","images/D11.png","","","","[""Hard"",""Soft""]"
"","","","","","html-slider-response","155","375983","0.0-151.0","nghpt3u3mq","NaN","<div style=""width:500px;"">
                                <p style=""font-size:50px; font-weight:bold;""
                                ></p>
                                <div style=""width:240px; margin: auto;"">
                                    <img src=""images/D17.png"" style= ""width:200px""alt=""img"">
                                </div>
                            </div>","-32","","0","images/D17.png","","","","[""Hard"",""Soft""]"
"","","","","","html-slider-response","156","377966","0.0-152.0","nghpt3u3mq","NaN","<div style=""width:500px;"">
                                <p style=""font-size:50px; font-weight:bold;""
                                ></p>
                                <div style=""width:240px; margin: auto;"">
                                    <img src=""images/D25.png"" style= ""width:200px""alt=""img"">
                                </div>
                            </div>","-186","","0","images/D25.png","","","","[""Hard"",""Soft""]"
"","","","","","html-slider-response","157","382499","0.0-153.0","nghpt3u3mq","NaN","<div style=""width:500px;"">
                                <p style=""font-size:50px; font-weight:bold;""
                                ></p>
                                <div style=""width:240px; margin: auto;"">
                                    <img src=""images/D22.png"" style= ""width:200px""alt=""img"">
                                </div>
                            </div>","-30","","0","images/D22.png","","","","[""Hard"",""Soft""]"
"","","","","","html-slider-response","158","384748","0.0-154.0","nghpt3u3mq","NaN","<div style=""width:500px;"">
                                <p style=""font-size:50px; font-weight:bold;""
                                ></p>
                                <div style=""width:240px; margin: auto;"">
                                    <img src=""images/D106.png"" style= ""width:200px""alt=""img"">
                                </div>
                            </div>","120","","0","images/D106.png","","","","[""Hard"",""Soft""]"
"","","","","","html-slider-response","159","386449","0.0-155.0","nghpt3u3mq","NaN","<div style=""width:500px;"">
                                <p style=""font-size:50px; font-weight:bold;""
                                ></p>
                                <div style=""width:240px; margin: auto;"">
                                    <img src=""images/D1.png"" style= ""width:200px""alt=""img"">
                                </div>
                            </div>","-193","","0","images/D1.png","","","","[""Hard"",""Soft""]"
"","","","","","html-slider-response","160","388133","0.0-156.0","nghpt3u3mq","NaN","<div style=""width:500px;"">
                                <p style=""font-size:50px; font-weight:bold;""
                                ></p>
                                <div style=""width:240px; margin: auto;"">
                                    <img src=""images/D65.png"" style= ""width:200px""alt=""img"">
                                </div>
                            </div>","-186","","0","images/D65.png","","","","[""Hard"",""Soft""]"
"","","","","","html-slider-response","161","391231","0.0-157.0","nghpt3u3mq","NaN","<div style=""width:500px;"">
                                <p style=""font-size:50px; font-weight:bold;""
                                ></p>
                                <div style=""width:240px; margin: auto;"">
                                    <img src=""images/D35.png"" style= ""width:200px""alt=""img"">
                                </div>
                            </div>","46","","0","images/D35.png","","","","[""Hard"",""Soft""]"
"","","","","","html-slider-response","162","394131","0.0-158.0","nghpt3u3mq","NaN","<div style=""width:500px;"">
                                <p style=""font-size:50px; font-weight:bold;""
                                ></p>
                                <div style=""width:240px; margin: auto;"">
                                    <img src=""images/D18.png"" style= ""width:200px""alt=""img"">
                                </div>
                            </div>","54","","0","images/D18.png","","","","[""Hard"",""Soft""]"
"","","","","","html-slider-response","163","395580","0.0-159.0","nghpt3u3mq","NaN","<div style=""width:500px;"">
                                <p style=""font-size:50px; font-weight:bold;""
                                ></p>
                                <div style=""width:240px; margin: auto;"">
                                    <img src=""images/D80.png"" style= ""width:200px""alt=""img"">
                                </div>
                            </div>","-199","","0","images/D80.png","","","","[""Hard"",""Soft""]"
"","","","","","html-slider-response","164","396764","0.0-160.0","nghpt3u3mq","NaN","<div style=""width:500px;"">
                                <p style=""font-size:50px; font-weight:bold;""
                                ></p>
                                <div style=""width:240px; margin: auto;"">
                                    <img src=""images/D96.png"" style= ""width:200px""alt=""img"">
                                </div>
                            </div>","-200","","0","images/D96.png","","","","[""Hard"",""Soft""]"
"","","","","","html-slider-response","165","398814","0.0-161.0","nghpt3u3mq","NaN","<div style=""width:500px;"">
                                <p style=""font-size:50px; font-weight:bold;""
                                ></p>
                                <div style=""width:240px; margin: auto;"">
                                    <img src=""images/D32.png"" style= ""width:200px""alt=""img"">
                                </div>
                            </div>","-184","","0","images/D32.png","","","","[""Hard"",""Soft""]"
"","","","","","html-slider-response","166","400180","0.0-162.0","nghpt3u3mq","NaN","<div style=""width:500px;"">
                                <p style=""font-size:50px; font-weight:bold;""
                                ></p>
                                <div style=""width:240px; margin: auto;"">
                                    <img src=""images/D36.png"" style= ""width:200px""alt=""img"">
                                </div>
                            </div>","-197","","0","images/D36.png","","","","[""Hard"",""Soft""]"
"","","","","","html-slider-response","167","401831","0.0-163.0","nghpt3u3mq","NaN","<div style=""width:500px;"">
                                <p style=""font-size:50px; font-weight:bold;""
                                ></p>
                                <div style=""width:240px; margin: auto;"">
                                    <img src=""images/D3.png"" style= ""width:200px""alt=""img"">
                                </div>
                            </div>","31","","0","images/D3.png","","","","[""Hard"",""Soft""]"
"","","","","","html-slider-response","168","404015","0.0-164.0","nghpt3u3mq","NaN","<div style=""width:500px;"">
                                <p style=""font-size:50px; font-weight:bold;""
                                ></p>
                                <div style=""width:240px; margin: auto;"">
                                    <img src=""images/D8.png"" style= ""width:200px""alt=""img"">
                                </div>
                            </div>","156","","0","images/D8.png","","","","[""Hard"",""Soft""]"
"","","","","","html-slider-response","169","406196","0.0-165.0","nghpt3u3mq","NaN","<div style=""width:500px;"">
                                <p style=""font-size:50px; font-weight:bold;""
                                ></p>
                                <div style=""width:240px; margin: auto;"">
                                    <img src=""images/D104.png"" style= ""width:200px""alt=""img"">
                                </div>
                            </div>","112","","0","images/D104.png","","","","[""Hard"",""Soft""]"
"","","","","","html-slider-response","170","413064","0.0-166.0","nghpt3u3mq","NaN","<div style=""width:500px;"">
                                <p style=""font-size:50px; font-weight:bold;""
                                ></p>
                                <div style=""width:240px; margin: auto;"">
                                    <img src=""images/D9.png"" style= ""width:200px""alt=""img"">
                                </div>
                            </div>","-101","","0","images/D9.png","","","","[""Hard"",""Soft""]"
"","","","","","html-slider-response","171","414814","0.0-167.0","nghpt3u3mq","NaN","<div style=""width:500px;"">
                                <p style=""font-size:50px; font-weight:bold;""
                                ></p>
                                <div style=""width:240px; margin: auto;"">
                                    <img src=""images/D6.png"" style= ""width:200px""alt=""img"">
                                </div>
                            </div>","155","","0","images/D6.png","","","","[""Hard"",""Soft""]"
"","","","","","html-slider-response","172","416245","0.0-168.0","nghpt3u3mq","NaN","<div style=""width:500px;"">
                                <p style=""font-size:50px; font-weight:bold;""
                                ></p>
                                <div style=""width:240px; margin: auto;"">
                                    <img src=""images/D34.png"" style= ""width:200px""alt=""img"">
                                </div>
                            </div>","104","","0","images/D34.png","","","","[""Hard"",""Soft""]"
"","","","","","html-slider-response","173","417544","0.0-169.0","nghpt3u3mq","NaN","<div style=""width:500px;"">
                                <p style=""font-size:50px; font-weight:bold;""
                                ></p>
                                <div style=""width:240px; margin: auto;"">
                                    <img src=""images/D95.png"" style= ""width:200px""alt=""img"">
                                </div>
                            </div>","-197","","0","images/D95.png","","","","[""Hard"",""Soft""]"
"","","","","","html-slider-response","174","419429","0.0-170.0","nghpt3u3mq","NaN","<div style=""width:500px;"">
                                <p style=""font-size:50px; font-weight:bold;""
                                ></p>
                                <div style=""width:240px; margin: auto;"">
                                    <img src=""images/D56.png"" style= ""width:200px""alt=""img"">
                                </div>
                            </div>","-198","","0","images/D56.png","","","","[""Hard"",""Soft""]"
"","","","","","html-slider-response","175","458260","0.0-171.0","nghpt3u3mq","NaN","<div style=""width:500px;"">
                                <p style=""font-size:50px; font-weight:bold;""
                                ></p>
                                <div style=""width:240px; margin: auto;"">
                                    <img src=""images/D4.png"" style= ""width:200px""alt=""img"">
                                </div>
                            </div>","-171","","0","images/D4.png","","","","[""Hard"",""Soft""]"
"","","","","","html-slider-response","176","476923","0.0-172.0","nghpt3u3mq","NaN","<div style=""width:500px;"">
                                <p style=""font-size:50px; font-weight:bold;""
                                ></p>
                                <div style=""width:240px; margin: auto;"">
                                    <img src=""images/D101.png"" style= ""width:200px""alt=""img"">
                                </div>
                            </div>","101","","0","images/D101.png","","","","[""Hard"",""Soft""]"
"","","","","","html-slider-response","177","480189","0.0-173.0","nghpt3u3mq","NaN","<div style=""width:500px;"">
                                <p style=""font-size:50px; font-weight:bold;""
                                ></p>
                                <div style=""width:240px; margin: auto;"">
                                    <img src=""images/D20.png"" style= ""width:200px""alt=""img"">
                                </div>
                            </div>","50","","0","images/D20.png","","","","[""Hard"",""Soft""]"
"","","","","","html-slider-response","178","483907","0.0-174.0","nghpt3u3mq","NaN","<div style=""width:500px;"">
                                <p style=""font-size:50px; font-weight:bold;""
                                ></p>
                                <div style=""width:240px; margin: auto;"">
                                    <img src=""images/D105.png"" style= ""width:200px""alt=""img"">
                                </div>
                            </div>","-54","","0","images/D105.png","","","","[""Hard"",""Soft""]"
"","","","","","html-slider-response","179","485956","0.0-175.0","nghpt3u3mq","NaN","<div style=""width:500px;"">
                                <p style=""font-size:50px; font-weight:bold;""
                                ></p>
                                <div style=""width:240px; margin: auto;"">
                                    <img src=""images/D46.png"" style= ""width:200px""alt=""img"">
                                </div>
                            </div>","134","","0","images/D46.png","","","","[""Hard"",""Soft""]"
"","","","","","html-slider-response","180","487456","0.0-176.0","nghpt3u3mq","NaN","<div style=""width:500px;"">
                                <p style=""font-size:50px; font-weight:bold;""
                                ></p>
                                <div style=""width:240px; margin: auto;"">
                                    <img src=""images/D103.png"" style= ""width:200px""alt=""img"">
                                </div>
                            </div>","115","","0","images/D103.png","","","","[""Hard"",""Soft""]"
"","","","","","html-slider-response","181","490288","0.0-177.0","nghpt3u3mq","NaN","<div style=""width:500px;"">
                                <p style=""font-size:50px; font-weight:bold;""
                                ></p>
                                <div style=""width:240px; margin: auto;"">
                                    <img src=""images/D83.png"" style= ""width:200px""alt=""img"">
                                </div>
                            </div>","-23","","0","images/D83.png","","","","[""Hard"",""Soft""]"
"","","","","","html-slider-response","182","494339","0.0-178.0","nghpt3u3mq","NaN","<div style=""width:500px;"">
                                <p style=""font-size:50px; font-weight:bold;""
                                ></p>
                                <div style=""width:240px; margin: auto;"">
                                    <img src=""images/D49.png"" style= ""width:200px""alt=""img"">
                                </div>
                            </div>","-35","","0","images/D49.png","","","","[""Hard"",""Soft""]"
"","","","","","html-slider-response","183","496009","0.0-179.0","nghpt3u3mq","NaN","<div style=""width:500px;"">
                                <p style=""font-size:50px; font-weight:bold;""
                                ></p>
                                <div style=""width:240px; margin: auto;"">
                                    <img src=""images/D82.png"" style= ""width:200px""alt=""img"">
                                </div>
                            </div>","-159","","0","images/D82.png","","","","[""Hard"",""Soft""]"
"","","","","","html-slider-response","184","497638","0.0-180.0","nghpt3u3mq","NaN","<div style=""width:500px;"">
                                <p style=""font-size:50px; font-weight:bold;""
                                ></p>
                                <div style=""width:240px; margin: auto;"">
                                    <img src=""images/D102.png"" style= ""width:200px""alt=""img"">
                                </div>
                            </div>","79","","0","images/D102.png","","","","[""Hard"",""Soft""]"
"","","","","","html-slider-response","185","499937","0.0-181.0","nghpt3u3mq","NaN","<div style=""width:500px;"">
                                <p style=""font-size:50px; font-weight:bold;""
                                ></p>
                                <div style=""width:240px; margin: auto;"">
                                    <img src=""images/D92.png"" style= ""width:200px""alt=""img"">
                                </div>
                            </div>","-127","","0","images/D92.png","","","","[""Hard"",""Soft""]"
"","","","","","html-slider-response","186","502071","0.0-182.0","nghpt3u3mq","NaN","<div style=""width:500px;"">
                                <p style=""font-size:50px; font-weight:bold;""
                                ></p>
                                <div style=""width:240px; margin: auto;"">
                                    <img src=""images/D111.png"" style= ""width:200px""alt=""img"">
                                </div>
                            </div>","166","","0","images/D111.png","","","","[""Hard"",""Soft""]"
"","","","","","html-slider-response","187","504170","0.0-183.0","nghpt3u3mq","NaN","<div style=""width:500px;"">
                                <p style=""font-size:50px; font-weight:bold;""
                                ></p>
                                <div style=""width:240px; margin: auto;"">
