"success","timeout","failed_images","failed_audio","failed_video","trial_type","trial_index","time_elapsed","internal_node_id","subject_id","rt","stimulus","response","question_order","slider_start","image_path","practiceTrial","practiceTrialNum","correct","slider_labels"
"true","false","[]","[]","[]","preload","0","1044","0.0-0.0","vuft52crq8","","","","","","","","","",""
"","","","","","html-button-response","1","19448507","0.0-1.0","vuft52crq8","11010229","<div style='text-align:center; font-size:20px; line-height:25px; width: 1200px;'>
                Welcome to our experiment! <br>
                <br>At the bottom of this screen, you will see a button that says 'Begin Experiment.
                <br>Please only click that button when you are ready to complete the 25 minute experiment in one sitting. <br>
                <br> Once you click that button, it will not be possible to restart the experiment. <br><br>","0","","","","","","",""
"true","","","","","fullscreen","2","19450539","0.0-2.0","vuft52crq8","1029","","","","","","","","",""
"","","","","","survey-multi-select","3","19455438","0.0-3.0","vuft52crq8","4896","","{""Consent"":[""<strong>I consent</strong>""]}","[0]","","","","","",""
"","","","","","html-button-response","4","19457955","0.0-4.0","vuft52crq8","2513","Welcome! <p> This experiment involves two parts: demographic information, followed by the experimental task.<p> It will take about 25 minutes to complete both parts.","0","","","","","","",""
"","","","","","survey-text","5","19466006","0.0-5.0","vuft52crq8","8049","","{""Age"":""18"",""Gender"":""female"",""Race/ethnicity"":""white""}","","","","","","",""
"","","","","","html-slider-response","6","19474371","0.0-6.0","vuft52crq8","8363","
                <div style='text-align:center; height: auto; margin-left=-100px; margin-bottom: -20px; font-size:20px; line-height:5px; width: 1200px;'>
                    <br>During this experiment, you will see a series of textures, one at a time, like the ones below: 
                </div>
                    <br>
                    <br>
                    <img src=""anchoring_visual_textures.png"" alt=""img"" style=""max-width:1200px; margin-left: -10px;"">
                </div>
                <div style=""clear: both;""></div>
                </div>
                    <div style='text-align:center; margin-left=-100px; font-size:20px; line-height:20px; width: 1200px; margin-top: -50px;'>
                    
                    <br> For each texture, you will be asked to rate where you think it falls on each of the response scales with the following endpoints:
                    </div>
                            <div style=""text-align: center; width: 1400px; "">
                                <p style=""font-size:20px; line-height:5px; ""><b>Blobby</b> versus <b>Stripey</b></p>
                                <p style=""font-size:20px; line-height:5px; ""><b>Rounded</b> versus <b>Rectangular</b></p>
                                <p style=""font-size:20px;line-height:5px;""><b>Coarse</b> versus <b>Fine</b></p>
                                <p style=""font-size:20px;line-height:5px; ""><b>Rough</b> versus <b>Smooth</b></p>
                                <p style=""font-size:20px;line-height:5px; ""><b>Random</b> versus <b>Non-Random</b></p>
                                <p style=""font-size:20px;line-height:5px;""><b>Hard</b> versus <b>Soft</b></p>
                            </div>
                            <div style='text-align:center; font-size:20px; line-height:20px; width: 1400px;'>
                    
                    Each trial will include one texture and one response scale. You will be asked to make your rating by sliding the cursor along a slider response scale like the one below.
                    <br><br> Before beginning, please look at the textures and scales. For each scale, think about the texture you associate most with the left endpoint. When you see that texture for that response scale, please click near the left of the scale.
                    <br><br> Now, please think about the texture you associate most with the right endpoint of each scale. When you see that texture for that response scale, please click near the right of the scale. 
                    <br><br> If you think a texture is not strongly associated with either endpoint of the scale, please click near the midpoint of the scale. Please use the full range of the scale. 
                    <br><br> You will be asked to rate each texture for a given scale before moving on to the next scale.
                    <br><br> Please press the 'Continue' button for instructions on how to use the slider.                     <br><br>
                ","null","","0","visual_textures_anchoring.png","true","","",""
"","","","","","html-button-response","7","19476021","0.0-7.0","vuft52crq8","1649","<div style=""width:1200px; margin-top:-150px;""><p style=""text-align:center; font-size:24px;"">To move the slider, click and drag your cursor to the location of the scale where you would like to make your rating and then let go. <br><br> When you let go of the slider, your response will be recorded and the next trial will begin. <br><br><br>
                We are interested in your initial impressions of each texture and scale, so please go with your first intuition. <br><br>
                Before you begin the experiment, there will be four training trials for you to practice using the scale. <br><br><br><br></div>
                <div style=""width:1200px;""><p style=""text-align:center; font-size:20px;"">When you are ready to start the training trials, please click ""Continue"".</p></div>","0","","","","","","",""
"","","","","","html-slider-response","8","19478032","0.0-8.0-0.0","vuft52crq8","NaN","<div style=""width:500px;"">
                                <p style=""font-size:25px;"">Please move the slider all the way to the <br> right endpoint of the scale</p>

                                </div>
                            </div>","200","","0","","true","0","true",""
"","","","","","html-button-response","9","19479420","0.0-8.0-1.0","vuft52crq8","884","<p align='center'><b>Good job!</b> Click on 'Continue' to proceed.</p>","0","","","","","","",""
"","","","","","html-slider-response","10","19480867","0.0-9.0-0.0","vuft52crq8","NaN","<div style=""width:500px;"">
                                <p style=""font-size:25px;"">Please move the slider all the way to the <br> left endpoint of the scale</p>

                                </div>
                            </div>","-200","","0","","true","1","true",""
"","","","","","html-button-response","11","19482204","0.0-9.0-1.0","vuft52crq8","835","<p align='center'><b>Good job!</b> Click on 'Continue' to proceed.</p>","0","","","","","","",""
"","","","","","html-slider-response","12","19486599","0.0-10.0-0.0","vuft52crq8","NaN","<div style=""width:500px;"">
                                <p style=""font-size:25px;"">Please move the slider halfway between the center and right endpoint of the scale</p>

                                </div>
                            </div>","110","","0","","true","2","true",""
"","","","","","html-button-response","13","19487804","0.0-10.0-1.0","vuft52crq8","702","<p align='center'><b>Good job!</b> Click on 'Continue' to proceed.</p>","0","","","","","","",""
"","","","","","html-slider-response","14","19489599","0.0-11.0-0.0","vuft52crq8","NaN","<div style=""width:500px;"">
                                <p style=""font-size:25px;"">Please move the slider halfway between the center and left endpoint of the scale</p>

                                </div>
                            </div>","-105","","0","","true","3","true",""
"","","","","","html-button-response","15","19490771","0.0-11.0-1.0","vuft52crq8","668","<p align='center'><b>Good job!</b> Click on 'Continue' to proceed.</p>","0","","","","","","",""
"","","","","","html-button-response","16","19492004","0.0-12.0","vuft52crq8","1233","<div style=""width:800px; margin-top:-300px;""><p style=""text-align:center; font-size:22px; line-height:25px;""""> Great job! You've completed the practice trials.</div>
                     <div style=""width:800px; margin-top:-20px;""><p style=""text-align:center""><br><br> In the following trials, you will be asked to rate textures on each scale one-by-one. <br> You will be given opportunities to take breaks when you have completed each block of trials. There are six total blocks of trials. <br><br> Please click continue to begin the main task.<br><br><br> </div>","0","","","","","","",""
"","","","","","html-button-response","17","19495149","0.0-13.0","vuft52crq8","3144","In the following trials, you will be asked to rate textures on the scale <b>Coarse</b> versus <b>Fine</b>. Please click 'Continue' when you are ready proceed.","0","","","","","","",""
"","","","","","html-slider-response","18","19498466","0.0-14.0","vuft52crq8","NaN","<div style=""width:500px;"">
                                <p style=""font-size:50px; font-weight:bold;""
                                ></p>
                                <div style=""width:240px; margin: auto;"">
                                    <img src=""images/D76.png"" style= ""width:200px""alt=""img"">
                                </div>
                            </div>","200","","0","images/D76.png","","","","[""Coarse"",""Fine""]"
"","","","","","html-slider-response","19","19500533","0.0-15.0","vuft52crq8","NaN","<div style=""width:500px;"">
                                <p style=""font-size:50px; font-weight:bold;""
                                ></p>
                                <div style=""width:240px; margin: auto;"">
                                    <img src=""images/D3.png"" style= ""width:200px""alt=""img"">
                                </div>
                            </div>","200","","0","images/D3.png","","","","[""Coarse"",""Fine""]"
"","","","","","html-slider-response","20","19502517","0.0-16.0","vuft52crq8","NaN","<div style=""width:500px;"">
                                <p style=""font-size:50px; font-weight:bold;""
                                ></p>
                                <div style=""width:240px; margin: auto;"">
                                    <img src=""images/D56.png"" style= ""width:200px""alt=""img"">
                                </div>
                            </div>","-200","","0","images/D56.png","","","","[""Coarse"",""Fine""]"
"","","","","","html-slider-response","21","19507782","0.0-17.0","vuft52crq8","NaN","<div style=""width:500px;"">
                                <p style=""font-size:50px; font-weight:bold;""
                                ></p>
                                <div style=""width:240px; margin: auto;"">
                                    <img src=""images/D106.png"" style= ""width:200px""alt=""img"">
                                </div>
                            </div>","200","","0","images/D106.png","","","","[""Coarse"",""Fine""]"
"","","","","","html-slider-response","22","19509732","0.0-18.0","vuft52crq8","NaN","<div style=""width:500px;"">
                                <p style=""font-size:50px; font-weight:bold;""
                                ></p>
                                <div style=""width:240px; margin: auto;"">
                                    <img src=""images/D14.png"" style= ""width:200px""alt=""img"">
                                </div>
                            </div>","200","","0","images/D14.png","","","","[""Coarse"",""Fine""]"
"","","","","","html-slider-response","23","19511499","0.0-19.0","vuft52crq8","NaN","<div style=""width:500px;"">
                                <p style=""font-size:50px; font-weight:bold;""
                                ></p>
                                <div style=""width:240px; margin: auto;"">
                                    <img src=""images/D94.png"" style= ""width:200px""alt=""img"">
                                </div>
                            </div>","-198","","0","images/D94.png","","","","[""Coarse"",""Fine""]"
"","","","","","html-slider-response","24","19513032","0.0-20.0","vuft52crq8","NaN","<div style=""width:500px;"">
                                <p style=""font-size:50px; font-weight:bold;""
                                ></p>
                                <div style=""width:240px; margin: auto;"">
                                    <img src=""images/D78.png"" style= ""width:200px""alt=""img"">
                                </div>
                            </div>","166","","0","images/D78.png","","","","[""Coarse"",""Fine""]"
"","","","","","html-slider-response","25","19514482","0.0-21.0","vuft52crq8","NaN","<div style=""width:500px;"">
                                <p style=""font-size:50px; font-weight:bold;""
                                ></p>
                                <div style=""width:240px; margin: auto;"">
                                    <img src=""images/D74.png"" style= ""width:200px""alt=""img"">
                                </div>
                            </div>","-99","","0","images/D74.png","","","","[""Coarse"",""Fine""]"
"","","","","","html-slider-response","26","19516182","0.0-22.0","vuft52crq8","NaN","<div style=""width:500px;"">
                                <p style=""font-size:50px; font-weight:bold;""
                                ></p>
                                <div style=""width:240px; margin: auto;"">
                                    <img src=""images/D95.png"" style= ""width:200px""alt=""img"">
                                </div>
                            </div>","-103","","0","images/D95.png","","","","[""Coarse"",""Fine""]"
"","","","","","html-slider-response","27","19517816","0.0-23.0","vuft52crq8","NaN","<div style=""width:500px;"">
                                <p style=""font-size:50px; font-weight:bold;""
                                ></p>
                                <div style=""width:240px; margin: auto;"">
                                    <img src=""images/D83.png"" style= ""width:200px""alt=""img"">
                                </div>
                            </div>","58","","0","images/D83.png","","","","[""Coarse"",""Fine""]"
"","","","","","html-slider-response","28","19519303","0.0-24.0","vuft52crq8","NaN","<div style=""width:500px;"">
                                <p style=""font-size:50px; font-weight:bold;""
                                ></p>
                                <div style=""width:240px; margin: auto;"">
                                    <img src=""images/D84.png"" style= ""width:200px""alt=""img"">
                                </div>
                            </div>","81","","0","images/D84.png","","","","[""Coarse"",""Fine""]"
"","","","","","html-slider-response","29","19520598","0.0-25.0","vuft52crq8","NaN","<div style=""width:500px;"">
                                <p style=""font-size:50px; font-weight:bold;""
                                ></p>
                                <div style=""width:240px; margin: auto;"">
                                    <img src=""images/D49.png"" style= ""width:200px""alt=""img"">
                                </div>
                            </div>","107","","0","images/D49.png","","","","[""Coarse"",""Fine""]"
"","","","","","html-slider-response","30","19522032","0.0-26.0","vuft52crq8","NaN","<div style=""width:500px;"">
                                <p style=""font-size:50px; font-weight:bold;""
                                ></p>
                                <div style=""width:240px; margin: auto;"">
                                    <img src=""images/D105.png"" style= ""width:200px""alt=""img"">
                                </div>
                            </div>","98","","0","images/D105.png","","","","[""Coarse"",""Fine""]"
"","","","","","html-slider-response","31","19523316","0.0-27.0","vuft52crq8","NaN","<div style=""width:500px;"">
                                <p style=""font-size:50px; font-weight:bold;""
                                ></p>
                                <div style=""width:240px; margin: auto;"">
                                    <img src=""images/D46.png"" style= ""width:200px""alt=""img"">
                                </div>
                            </div>","-106","","0","images/D46.png","","","","[""Coarse"",""Fine""]"
"","","","","","html-slider-response","32","19524538","0.0-28.0","vuft52crq8","NaN","<div style=""width:500px;"">
                                <p style=""font-size:50px; font-weight:bold;""
                                ></p>
                                <div style=""width:240px; margin: auto;"">
                                    <img src=""images/D16.png"" style= ""width:200px""alt=""img"">
                                </div>
                            </div>","77","","0","images/D16.png","","","","[""Coarse"",""Fine""]"
"","","","","","html-slider-response","33","19525681","0.0-29.0","vuft52crq8","NaN","<div style=""width:500px;"">
                                <p style=""font-size:50px; font-weight:bold;""
                                ></p>
                                <div style=""width:240px; margin: auto;"">
                                    <img src=""images/D65.png"" style= ""width:200px""alt=""img"">
                                </div>
                            </div>","-116","","0","images/D65.png","","","","[""Coarse"",""Fine""]"
"","","","","","html-slider-response","34","19527033","0.0-30.0","vuft52crq8","NaN","<div style=""width:500px;"">
                                <p style=""font-size:50px; font-weight:bold;""
                                ></p>
                                <div style=""width:240px; margin: auto;"">
                                    <img src=""images/D81.png"" style= ""width:200px""alt=""img"">
                                </div>
                            </div>","-157","","0","images/D81.png","","","","[""Coarse"",""Fine""]"
"","","","","","html-slider-response","35","19528398","0.0-31.0","vuft52crq8","NaN","<div style=""width:500px;"">
                                <p style=""font-size:50px; font-weight:bold;""
                                ></p>
                                <div style=""width:240px; margin: auto;"">
                                    <img src=""images/D17.png"" style= ""width:200px""alt=""img"">
                                </div>
                            </div>","68","","0","images/D17.png","","","","[""Coarse"",""Fine""]"
"","","","","","html-slider-response","36","19529501","0.0-32.0","vuft52crq8","NaN","<div style=""width:500px;"">
                                <p style=""font-size:50px; font-weight:bold;""
                                ></p>
                                <div style=""width:240px; margin: auto;"">
                                    <img src=""images/D111.png"" style= ""width:200px""alt=""img"">
                                </div>
                            </div>","-128","","0","images/D111.png","","","","[""Coarse"",""Fine""]"
"","","","","","html-slider-response","37","19530465","0.0-33.0","vuft52crq8","NaN","<div style=""width:500px;"">
                                <p style=""font-size:50px; font-weight:bold;""
                                ></p>
                                <div style=""width:240px; margin: auto;"">
                                    <img src=""images/D57.png"" style= ""width:200px""alt=""img"">
                                </div>
                            </div>","-26","","0","images/D57.png","","","","[""Coarse"",""Fine""]"
"","","","","","html-slider-response","38","19531848","0.0-34.0","vuft52crq8","NaN","<div style=""width:500px;"">
                                <p style=""font-size:50px; font-weight:bold;""
                                ></p>
                                <div style=""width:240px; margin: auto;"">
                                    <img src=""images/D85.png"" style= ""width:200px""alt=""img"">
                                </div>
                            </div>","-130","","0","images/D85.png","","","","[""Coarse"",""Fine""]"
"","","","","","html-slider-response","39","19532937","0.0-35.0","vuft52crq8","NaN","<div style=""width:500px;"">
                                <p style=""font-size:50px; font-weight:bold;""
                                ></p>
                                <div style=""width:240px; margin: auto;"">
                                    <img src=""images/D26.png"" style= ""width:200px""alt=""img"">
                                </div>
                            </div>","163","","0","images/D26.png","","","","[""Coarse"",""Fine""]"
"","","","","","html-slider-response","40","19534366","0.0-36.0","vuft52crq8","NaN","<div style=""width:500px;"">
                                <p style=""font-size:50px; font-weight:bold;""
                                ></p>
                                <div style=""width:240px; margin: auto;"">
                                    <img src=""images/D9.png"" style= ""width:200px""alt=""img"">
                                </div>
                            </div>","111","","0","images/D9.png","","","","[""Coarse"",""Fine""]"
"","","","","","html-slider-response","41","19535384","0.0-37.0","vuft52crq8","NaN","<div style=""width:500px;"">
                                <p style=""font-size:50px; font-weight:bold;""
                                ></p>
                                <div style=""width:240px; margin: auto;"">
                                    <img src=""images/D79.png"" style= ""width:200px""alt=""img"">
                                </div>
                            </div>","-86","","0","images/D79.png","","","","[""Coarse"",""Fine""]"
"","","","","","html-slider-response","42","19536899","0.0-38.0","vuft52crq8","NaN","<div style=""width:500px;"">
                                <p style=""font-size:50px; font-weight:bold;""
                                ></p>
                                <div style=""width:240px; margin: auto;"">
                                    <img src=""images/D66.png"" style= ""width:200px""alt=""img"">
                                </div>
                            </div>","-113","","0","images/D66.png","","","","[""Coarse"",""Fine""]"
"","","","","","html-slider-response","43","19538198","0.0-39.0","vuft52crq8","NaN","<div style=""width:500px;"">
                                <p style=""font-size:50px; font-weight:bold;""
                                ></p>
                                <div style=""width:240px; margin: auto;"">
                                    <img src=""images/D1.png"" style= ""width:200px""alt=""img"">
                                </div>
                            </div>","-115","","0","images/D1.png","","","","[""Coarse"",""Fine""]"
"","","","","","html-slider-response","44","19539350","0.0-40.0","vuft52crq8","NaN","<div style=""width:500px;"">
                                <p style=""font-size:50px; font-weight:bold;""
                                ></p>
                                <div style=""width:240px; margin: auto;"">
                                    <img src=""images/D22.png"" style= ""width:200px""alt=""img"">
                                </div>
                            </div>","-200","","0","images/D22.png","","","","[""Coarse"",""Fine""]"
"","","","","","html-slider-response","45","19540881","0.0-41.0","vuft52crq8","NaN","<div style=""width:500px;"">
                                <p style=""font-size:50px; font-weight:bold;""
                                ></p>
                                <div style=""width:240px; margin: auto;"">
                                    <img src=""images/D104.png"" style= ""width:200px""alt=""img"">
                                </div>
                            </div>","-91","","0","images/D104.png","","","","[""Coarse"",""Fine""]"
"","","","","","html-slider-response","46","19542115","0.0-42.0","vuft52crq8","NaN","<div style=""width:500px;"">
                                <p style=""font-size:50px; font-weight:bold;""
                                ></p>
                                <div style=""width:240px; margin: auto;"">
                                    <img src=""images/D92.png"" style= ""width:200px""alt=""img"">
                                </div>
                            </div>","-114","","0","images/D92.png","","","","[""Coarse"",""Fine""]"
"","","","","","html-slider-response","47","19543332","0.0-43.0","vuft52crq8","NaN","<div style=""width:500px;"">
                                <p style=""font-size:50px; font-weight:bold;""
                                ></p>
                                <div style=""width:240px; margin: auto;"">
                                    <img src=""images/D19.png"" style= ""width:200px""alt=""img"">
                                </div>
                            </div>","-110","","0","images/D19.png","","","","[""Coarse"",""Fine""]"
"","","","","","html-slider-response","48","19544648","0.0-44.0","vuft52crq8","NaN","<div style=""width:500px;"">
                                <p style=""font-size:50px; font-weight:bold;""
                                ></p>
                                <div style=""width:240px; margin: auto;"">
                                    <img src=""images/D53.png"" style= ""width:200px""alt=""img"">
                                </div>
                            </div>","164","","0","images/D53.png","","","","[""Coarse"",""Fine""]"
"","","","","","html-slider-response","49","19546132","0.0-45.0","vuft52crq8","NaN","<div style=""width:500px;"">
                                <p style=""font-size:50px; font-weight:bold;""
                                ></p>
                                <div style=""width:240px; margin: auto;"">
                                    <img src=""images/D47.png"" style= ""width:200px""alt=""img"">
                                </div>
                            </div>","-110","","0","images/D47.png","","","","[""Coarse"",""Fine""]"
"","","","","","html-slider-response","50","19547304","0.0-46.0","vuft52crq8","NaN","<div style=""width:500px;"">
                                <p style=""font-size:50px; font-weight:bold;""
                                ></p>
                                <div style=""width:240px; margin: auto;"">
                                    <img src=""images/D87.png"" style= ""width:200px""alt=""img"">
                                </div>
                            </div>","28","","0","images/D87.png","","","","[""Coarse"",""Fine""]"
"","","","","","html-slider-response","51","19548547","0.0-47.0","vuft52crq8","NaN","<div style=""width:500px;"">
                                <p style=""font-size:50px; font-weight:bold;""
                                ></p>
                                <div style=""width:240px; margin: auto;"">
                                    <img src=""images/D25.png"" style= ""width:200px""alt=""img"">
                                </div>
                            </div>","-123","","0","images/D25.png","","","","[""Coarse"",""Fine""]"
"","","","","","html-slider-response","52","19550033","0.0-48.0","vuft52crq8","NaN","<div style=""width:500px;"">
                                <p style=""font-size:50px; font-weight:bold;""
                                ></p>
                                <div style=""width:240px; margin: auto;"">
                                    <img src=""images/D36.png"" style= ""width:200px""alt=""img"">
                                </div>
                            </div>","104","","0","images/D36.png","","","","[""Coarse"",""Fine""]"
"","","","","","html-slider-response","53","19551383","0.0-49.0","vuft52crq8","NaN","<div style=""width:500px;"">
                                <p style=""font-size:50px; font-weight:bold;""
                                ></p>
                                <div style=""width:240px; margin: auto;"">
                                    <img src=""images/D18.png"" style= ""width:200px""alt=""img"">
                                </div>
                            </div>","-66","","0","images/D18.png","","","","[""Coarse"",""Fine""]"
"","","","","","html-slider-response","54","19552749","0.0-50.0","vuft52crq8","NaN","<div style=""width:500px;"">
                                <p style=""font-size:50px; font-weight:bold;""
                                ></p>
                                <div style=""width:240px; margin: auto;"">
                                    <img src=""images/D102.png"" style= ""width:200px""alt=""img"">
                                </div>
                            </div>","117","","0","images/D102.png","","","","[""Coarse"",""Fine""]"
"","","","","","html-slider-response","55","19554099","0.0-51.0","vuft52crq8","NaN","<div style=""width:500px;"">
                                <p style=""font-size:50px; font-weight:bold;""
                                ></p>
                                <div style=""width:240px; margin: auto;"">
                                    <img src=""images/D64.png"" style= ""width:200px""alt=""img"">
                                </div>
                            </div>","-122","","0","images/D64.png","","","","[""Coarse"",""Fine""]"
"","","","","","html-slider-response","56","19555283","0.0-52.0","vuft52crq8","NaN","<div style=""width:500px;"">
                                <p style=""font-size:50px; font-weight:bold;""
                                ></p>
                                <div style=""width:240px; margin: auto;"">
                                    <img src=""images/D77.png"" style= ""width:200px""alt=""img"">
                                </div>
                            </div>","90","","0","images/D77.png","","","","[""Coarse"",""Fine""]"
"","","","","","html-slider-response","57","19556450","0.0-53.0","vuft52crq8","NaN","<div style=""width:500px;"">
                                <p style=""font-size:50px; font-weight:bold;""
                                ></p>
                                <div style=""width:240px; margin: auto;"">
                                    <img src=""images/D51.png"" style= ""width:200px""alt=""img"">
                                </div>
                            </div>","-107","","0","images/D51.png","","","","[""Coarse"",""Fine""]"
"","","","","","html-slider-response","58","19557902","0.0-54.0","vuft52crq8","NaN","<div style=""width:500px;"">
                                <p style=""font-size:50px; font-weight:bold;""
                                ></p>
                                <div style=""width:240px; margin: auto;"">
                                    <img src=""images/D4.png"" style= ""width:200px""alt=""img"">
                                </div>
                            </div>","110","","0","images/D4.png","","","","[""Coarse"",""Fine""]"
"","","","","","html-slider-response","59","19559398","0.0-55.0","vuft52crq8","NaN","<div style=""width:500px;"">
                                <p style=""font-size:50px; font-weight:bold;""
                                ></p>
                                <div style=""width:240px; margin: auto;"">
                                    <img src=""images/D20.png"" style= ""width:200px""alt=""img"">
                                </div>
                            </div>","-95","","0","images/D20.png","","","","[""Coarse"",""Fine""]"
"","","","","","html-slider-response","60","19560715","0.0-56.0","vuft52crq8","NaN","<div style=""width:500px;"">
                                <p style=""font-size:50px; font-weight:bold;""
                                ></p>
                                <div style=""width:240px; margin: auto;"">
                                    <img src=""images/D96.png"" style= ""width:200px""alt=""img"">
                                </div>
                            </div>","-88","","0","images/D96.png","","","","[""Coarse"",""Fine""]"
"","","","","","html-slider-response","61","19562065","0.0-57.0","vuft52crq8","NaN","<div style=""width:500px;"">
                                <p style=""font-size:50px; font-weight:bold;""
                                ></p>
                                <div style=""width:240px; margin: auto;"">
                                    <img src=""images/D55.png"" style= ""width:200px""alt=""img"">
                                </div>
                            </div>","112","","0","images/D55.png","","","","[""Coarse"",""Fine""]"
"","","","","","html-slider-response","62","19563349","0.0-58.0","vuft52crq8","NaN","<div style=""width:500px;"">
                                <p style=""font-size:50px; font-weight:bold;""
                                ></p>
                                <div style=""width:240px; margin: auto;"">
                                    <img src=""images/D101.png"" style= ""width:200px""alt=""img"">
                                </div>
                            </div>","73","","0","images/D101.png","","","","[""Coarse"",""Fine""]"
"","","","","","html-slider-response","63","19564765","0.0-59.0","vuft52crq8","NaN","<div style=""width:500px;"">
                                <p style=""font-size:50px; font-weight:bold;""
                                ></p>
                                <div style=""width:240px; margin: auto;"">
                                    <img src=""images/D37.png"" style= ""width:200px""alt=""img"">
                                </div>
                            </div>","-109","","0","images/D37.png","","","","[""Coarse"",""Fine""]"
"","","","","","html-slider-response","64","19566051","0.0-60.0","vuft52crq8","NaN","<div style=""width:500px;"">
                                <p style=""font-size:50px; font-weight:bold;""
                                ></p>
                                <div style=""width:240px; margin: auto;"">
                                    <img src=""images/D103.png"" style= ""width:200px""alt=""img"">
                                </div>
                            </div>","102","","0","images/D103.png","","","","[""Coarse"",""Fine""]"
"","","","","","html-slider-response","65","19567300","0.0-61.0","vuft52crq8","NaN","<div style=""width:500px;"">
                                <p style=""font-size:50px; font-weight:bold;""
                                ></p>
                                <div style=""width:240px; margin: auto;"">
                                    <img src=""images/D11.png"" style= ""width:200px""alt=""img"">
                                </div>
                            </div>","-105","","0","images/D11.png","","","","[""Coarse"",""Fine""]"
"","","","","","html-slider-response","66","19568400","0.0-62.0","vuft52crq8","NaN","<div style=""width:500px;"">
                                <p style=""font-size:50px; font-weight:bold;""
                                ></p>
                                <div style=""width:240px; margin: auto;"">
                                    <img src=""images/D68.png"" style= ""width:200px""alt=""img"">
                                </div>
                            </div>","129","","0","images/D68.png","","","","[""Coarse"",""Fine""]"
"","","","","","html-slider-response","67","19569515","0.0-63.0","vuft52crq8","NaN","<div style=""width:500px;"">
                                <p style=""font-size:50px; font-weight:bold;""
                                ></p>
                                <div style=""width:240px; margin: auto;"">
                                    <img src=""images/D29.png"" style= ""width:200px""alt=""img"">
                                </div>
                            </div>","-154","","0","images/D29.png","","","","[""Coarse"",""Fine""]"
"","","","","","html-slider-response","68","19570698","0.0-64.0","vuft52crq8","NaN","<div style=""width:500px;"">
                                <p style=""font-size:50px; font-weight:bold;""
                                ></p>
                                <div style=""width:240px; margin: auto;"">
                                    <img src=""images/D35.png"" style= ""width:200px""alt=""img"">
                                </div>
                            </div>","84","","0","images/D35.png","","","","[""Coarse"",""Fine""]"
"","","","","","html-slider-response","69","19571949","0.0-65.0","vuft52crq8","NaN","<div style=""width:500px;"">
                                <p style=""font-size:50px; font-weight:bold;""
                                ></p>
                                <div style=""width:240px; margin: auto;"">
                                    <img src=""images/D80.png"" style= ""width:200px""alt=""img"">
                                </div>
                            </div>","-110","","0","images/D80.png","","","","[""Coarse"",""Fine""]"
"","","","","","html-slider-response","70","19573048","0.0-66.0","vuft52crq8","NaN","<div style=""width:500px;"">
                                <p style=""font-size:50px; font-weight:bold;""
                                ></p>
                                <div style=""width:240px; margin: auto;"">
                                    <img src=""images/D6.png"" style= ""width:200px""alt=""img"">
                                </div>
                            </div>","62","","0","images/D6.png","","","","[""Coarse"",""Fine""]"
"","","","","","html-slider-response","71","19574118","0.0-67.0","vuft52crq8","NaN","<div style=""width:500px;"">
                                <p style=""font-size:50px; font-weight:bold;""
                                ></p>
                                <div style=""width:240px; margin: auto;"">
                                    <img src=""images/D82.png"" style= ""width:200px""alt=""img"">
                                </div>
                            </div>","-98","","0","images/D82.png","","","","[""Coarse"",""Fine""]"
"","","","","","html-slider-response","72","19575131","0.0-68.0","vuft52crq8","NaN","<div style=""width:500px;"">
                                <p style=""font-size:50px; font-weight:bold;""
                                ></p>
                                <div style=""width:240px; margin: auto;"">
                                    <img src=""images/D75.png"" style= ""width:200px""alt=""img"">
                                </div>
                            </div>","62","","0","images/D75.png","","","","[""Coarse"",""Fine""]"
"","","","","","html-slider-response","73","19576200","0.0-69.0","vuft52crq8","NaN","<div style=""width:500px;"">
                                <p style=""font-size:50px; font-weight:bold;""
                                ></p>
                                <div style=""width:240px; margin: auto;"">
                                    <img src=""images/D52.png"" style= ""width:200px""alt=""img"">
                                </div>
                            </div>","-98","","0","images/D52.png","","","","[""Coarse"",""Fine""]"
"","","","","","html-slider-response","74","19577365","0.0-70.0","vuft52crq8","NaN","<div style=""width:500px;"">
                                <p style=""font-size:50px; font-weight:bold;""
                                ></p>
                                <div style=""width:240px; margin: auto;"">
                                    <img src=""images/D24.png"" style= ""width:200px""alt=""img"">
                                </div>
                            </div>","62","","0","images/D24.png","","","","[""Coarse"",""Fine""]"
"","","","","","html-slider-response","75","19578281","0.0-71.0","vuft52crq8","NaN","<div style=""width:500px;"">
                                <p style=""font-size:50px; font-weight:bold;""
                                ></p>
                                <div style=""width:240px; margin: auto;"">
                                    <img src=""images/D48.png"" style= ""width:200px""alt=""img"">
                                </div>
                            </div>","-115","","0","images/D48.png","","","","[""Coarse"",""Fine""]"
"","","","","","html-slider-response","76","19580114","0.0-72.0","vuft52crq8","NaN","<div style=""width:500px;"">
                                <p style=""font-size:50px; font-weight:bold;""
                                ></p>
                                <div style=""width:240px; margin: auto;"">
                                    <img src=""images/D8.png"" style= ""width:200px""alt=""img"">
                                </div>
                            </div>","82","","0","images/D8.png","","","","[""Coarse"",""Fine""]"
"","","","","","html-slider-response","77","19581299","0.0-73.0","vuft52crq8","NaN","<div style=""width:500px;"">
                                <p style=""font-size:50px; font-weight:bold;""
                                ></p>
                                <div style=""width:240px; margin: auto;"">
                                    <img src=""images/D21.png"" style= ""width:200px""alt=""img"">
                                </div>
                            </div>","-116","","0","images/D21.png","","","","[""Coarse"",""Fine""]"
"","","","","","html-slider-response","78","19582401","0.0-74.0","vuft52crq8","NaN","<div style=""width:500px;"">
                                <p style=""font-size:50px; font-weight:bold;""
                                ></p>
                                <div style=""width:240px; margin: auto;"">
                                    <img src=""images/D32.png"" style= ""width:200px""alt=""img"">
                                </div>
                            </div>","39","","0","images/D32.png","","","","[""Coarse"",""Fine""]"
"","","","","","html-slider-response","79","19583581","0.0-75.0","vuft52crq8","NaN","<div style=""width:500px;"">
                                <p style=""font-size:50px; font-weight:bold;""
                                ></p>
                                <div style=""width:240px; margin: auto;"">
                                    <img src=""images/D34.png"" style= ""width:200px""alt=""img"">
                                </div>
                            </div>","-92","","0","images/D34.png","","","","[""Coarse"",""Fine""]"
"","","","","","html-button-response","80","19586803","0.0-76.0","vuft52crq8","2720","You have completed the first block of trials out of six. Please click 'Continue' when you are ready proceed.","0","","","","","","",""
"","","","","","html-button-response","81","19624804","0.0-77.0","vuft52crq8","37999","In the following trials, you will be asked to rate textures on the scale <b>Random</b> versus <b>Non-Random</b>. Please click 'Continue' when you are ready proceed.","0","","","","","","",""
"","","","","","html-slider-response","82","19626481","0.0-78.0","vuft52crq8","NaN","<div style=""width:500px;"">
                                <p style=""font-size:50px; font-weight:bold;""
                                ></p>
                                <div style=""width:240px; margin: auto;"">
                                    <img src=""images/D76.png"" style= ""width:200px""alt=""img"">
                                </div>
                            </div>","-92","","0","images/D76.png","","","","[""Random"",""Non-random""]"
"","","","","","html-slider-response","83","19627967","0.0-79.0","vuft52crq8","NaN","<div style=""width:500px;"">
                                <p style=""font-size:50px; font-weight:bold;""
                                ></p>
                                <div style=""width:240px; margin: auto;"">
                                    <img src=""images/D3.png"" style= ""width:200px""alt=""img"">
                                </div>
                            </div>","112","","0","images/D3.png","","","","[""Random"",""Non-random""]"
"","","","","","html-slider-response","84","19629401","0.0-80.0","vuft52crq8","NaN","<div style=""width:500px;"">
                                <p style=""font-size:50px; font-weight:bold;""
                                ></p>
                                <div style=""width:240px; margin: auto;"">
                                    <img src=""images/D56.png"" style= ""width:200px""alt=""img"">
                                </div>
                            </div>","-47","","0","images/D56.png","","","","[""Random"",""Non-random""]"
"","","","","","html-slider-response","85","19630564","0.0-81.0","vuft52crq8","NaN","<div style=""width:500px;"">
                                <p style=""font-size:50px; font-weight:bold;""
                                ></p>
                                <div style=""width:240px; margin: auto;"">
                                    <img src=""images/D106.png"" style= ""width:200px""alt=""img"">
                                </div>
                            </div>","22","","0","images/D106.png","","","","[""Random"",""Non-random""]"
"","","","","","html-slider-response","86","19631798","0.0-82.0","vuft52crq8","NaN","<div style=""width:500px;"">
                                <p style=""font-size:50px; font-weight:bold;""
                                ></p>
                                <div style=""width:240px; margin: auto;"">
                                    <img src=""images/D14.png"" style= ""width:200px""alt=""img"">
                                </div>
                            </div>","-99","","0","images/D14.png","","","","[""Random"",""Non-random""]"
"","","","","","html-slider-response","87","19633466","0.0-83.0","vuft52crq8","NaN","<div style=""width:500px;"">
                                <p style=""font-size:50px; font-weight:bold;""
                                ></p>
                                <div style=""width:240px; margin: auto;"">
                                    <img src=""images/D94.png"" style= ""width:200px""alt=""img"">
                                </div>
                            </div>","82","","0","images/D94.png","","","","[""Random"",""Non-random""]"
"","","","","","html-slider-response","88","19634698","0.0-84.0","vuft52crq8","NaN","<div style=""width:500px;"">
                                <p style=""font-size:50px; font-weight:bold;""
                                ></p>
                                <div style=""width:240px; margin: auto;"">
                                    <img src=""images/D78.png"" style= ""width:200px""alt=""img"">
                                </div>
                            </div>","-66","","0","images/D78.png","","","","[""Random"",""Non-random""]"
"","","","","","html-slider-response","89","19635783","0.0-85.0","vuft52crq8","NaN","<div style=""width:500px;"">
                                <p style=""font-size:50px; font-weight:bold;""
                                ></p>
                                <div style=""width:240px; margin: auto;"">
                                    <img src=""images/D74.png"" style= ""width:200px""alt=""img"">
                                </div>
                            </div>","88","","0","images/D74.png","","","","[""Random"",""Non-random""]"
"","","","","","html-slider-response","90","19636931","0.0-86.0","vuft52crq8","NaN","<div style=""width:500px;"">
                                <p style=""font-size:50px; font-weight:bold;""
                                ></p>
                                <div style=""width:240px; margin: auto;"">
                                    <img src=""images/D95.png"" style= ""width:200px""alt=""img"">
                                </div>
                            </div>","-86","","0","images/D95.png","","","","[""Random"",""Non-random""]"
"","","","","","html-slider-response","91","19638348","0.0-87.0","vuft52crq8","NaN","<div style=""width:500px;"">
                                <p style=""font-size:50px; font-weight:bold;""
                                ></p>
                                <div style=""width:240px; margin: auto;"">
                                    <img src=""images/D83.png"" style= ""width:200px""alt=""img"">
                                </div>
                            </div>","64","","0","images/D83.png","","","","[""Random"",""Non-random""]"
"","","","","","html-slider-response","92","19639599","0.0-88.0","vuft52crq8","NaN","<div style=""width:500px;"">
                                <p style=""font-size:50px; font-weight:bold;""
                                ></p>
                                <div style=""width:240px; margin: auto;"">
                                    <img src=""images/D84.png"" style= ""width:200px""alt=""img"">
                                </div>
                            </div>","61","","0","images/D84.png","","","","[""Random"",""Non-random""]"
"","","","","","html-slider-response","93","19640767","0.0-89.0","vuft52crq8","NaN","<div style=""width:500px;"">
                                <p style=""font-size:50px; font-weight:bold;""
                                ></p>
                                <div style=""width:240px; margin: auto;"">
                                    <img src=""images/D49.png"" style= ""width:200px""alt=""img"">
                                </div>
                            </div>","-71","","0","images/D49.png","","","","[""Random"",""Non-random""]"
"","","","","","html-slider-response","94","19641948","0.0-90.0","vuft52crq8","NaN","<div style=""width:500px;"">
                                <p style=""font-size:50px; font-weight:bold;""
                                ></p>
                                <div style=""width:240px; margin: auto;"">
                                    <img src=""images/D105.png"" style= ""width:200px""alt=""img"">
                                </div>
                            </div>","119","","0","images/D105.png","","","","[""Random"",""Non-random""]"
"","","","","","html-slider-response","95","19643115","0.0-91.0","vuft52crq8","NaN","<div style=""width:500px;"">
                                <p style=""font-size:50px; font-weight:bold;""
                                ></p>
                                <div style=""width:240px; margin: auto;"">
                                    <img src=""images/D46.png"" style= ""width:200px""alt=""img"">
                                </div>
                            </div>","-138","","0","images/D46.png","","","","[""Random"",""Non-random""]"
"","","","","","html-slider-response","96","19644349","0.0-92.0","vuft52crq8","NaN","<div style=""width:500px;"">
                                <p style=""font-size:50px; font-weight:bold;""
                                ></p>
                                <div style=""width:240px; margin: auto;"">
                                    <img src=""images/D16.png"" style= ""width:200px""alt=""img"">
                                </div>
                            </div>","77","","0","images/D16.png","","","","[""Random"",""Non-random""]"
"","","","","","html-slider-response","97","19645580","0.0-93.0","vuft52crq8","NaN","<div style=""width:500px;"">
                                <p style=""font-size:50px; font-weight:bold;""
                                ></p>
                                <div style=""width:240px; margin: auto;"">
                                    <img src=""images/D65.png"" style= ""width:200px""alt=""img"">
                                </div>
                            </div>","-54","","0","images/D65.png","","","","[""Random"",""Non-random""]"
"","","","","","html-slider-response","98","19646981","0.0-94.0","vuft52crq8","NaN","<div style=""width:500px;"">
                                <p style=""font-size:50px; font-weight:bold;""
                                ></p>
                                <div style=""width:240px; margin: auto;"">
                                    <img src=""images/D81.png"" style= ""width:200px""alt=""img"">
                                </div>
                            </div>","72","","0","images/D81.png","","","","[""Random"",""Non-random""]"
"","","","","","html-slider-response","99","19648165","0.0-95.0","vuft52crq8","NaN","<div style=""width:500px;"">
                                <p style=""font-size:50px; font-weight:bold;""
                                ></p>
                                <div style=""width:240px; margin: auto;"">
                                    <img src=""images/D17.png"" style= ""width:200px""alt=""img"">
                                </div>
                            </div>","-61","","0","images/D17.png","","","","[""Random"",""Non-random""]"
"","","","","","html-slider-response","100","19649350","0.0-96.0","vuft52crq8","NaN","<div style=""width:500px;"">
                                <p style=""font-size:50px; font-weight:bold;""
                                ></p>
                                <div style=""width:240px; margin: auto;"">
                                    <img src=""images/D111.png"" style= ""width:200px""alt=""img"">
                                </div>
                            </div>","58","","0","images/D111.png","","","","[""Random"",""Non-random""]"
"","","","","","html-slider-response","101","19650565","0.0-97.0","vuft52crq8","NaN","<div style=""width:500px;"">
                                <p style=""font-size:50px; font-weight:bold;""
                                ></p>
                                <div style=""width:240px; margin: auto;"">
                                    <img src=""images/D57.png"" style= ""width:200px""alt=""img"">
                                </div>
                            </div>","-53","","0","images/D57.png","","","","[""Random"",""Non-random""]"
"","","","","","html-slider-response","102","19651814","0.0-98.0","vuft52crq8","NaN","<div style=""width:500px;"">
                                <p style=""font-size:50px; font-weight:bold;""
                                ></p>
                                <div style=""width:240px; margin: auto;"">
                                    <img src=""images/D85.png"" style= ""width:200px""alt=""img"">
                                </div>
                            </div>","99","","0","images/D85.png","","","","[""Random"",""Non-random""]"
"","","","","","html-slider-response","103","19653036","0.0-99.0","vuft52crq8","NaN","<div style=""width:500px;"">
                                <p style=""font-size:50px; font-weight:bold;""
                                ></p>
                                <div style=""width:240px; margin: auto;"">
                                    <img src=""images/D26.png"" style= ""width:200px""alt=""img"">
                                </div>
                            </div>","-57","","0","images/D26.png","","","","[""Random"",""Non-random""]"
"","","","","","html-slider-response","104","19654497","0.0-100.0","vuft52crq8","NaN","<div style=""width:500px;"">
                                <p style=""font-size:50px; font-weight:bold;""
                                ></p>
                                <div style=""width:240px; margin: auto;"">
                                    <img src=""images/D9.png"" style= ""width:200px""alt=""img"">
                                </div>
                            </div>","53","","0","images/D9.png","","","","[""Random"",""Non-random""]"
"","","","","","html-slider-response","105","19655682","0.0-101.0","vuft52crq8","NaN","<div style=""width:500px;"">
                                <p style=""font-size:50px; font-weight:bold;""
                                ></p>
                                <div style=""width:240px; margin: auto;"">
                                    <img src=""images/D79.png"" style= ""width:200px""alt=""img"">
                                </div>
                            </div>","-80","","0","images/D79.png","","","","[""Random"",""Non-random""]"
"","","","","","html-slider-response","106","19656915","0.0-102.0","vuft52crq8","NaN","<div style=""width:500px;"">
                                <p style=""font-size:50px; font-weight:bold;""
                                ></p>
                                <div style=""width:240px; margin: auto;"">
                                    <img src=""images/D66.png"" style= ""width:200px""alt=""img"">
                                </div>
                            </div>","78","","0","images/D66.png","","","","[""Random"",""Non-random""]"
"","","","","","html-slider-response","107","19658281","0.0-103.0","vuft52crq8","NaN","<div style=""width:500px;"">
                                <p style=""font-size:50px; font-weight:bold;""
                                ></p>
                                <div style=""width:240px; margin: auto;"">
                                    <img src=""images/D1.png"" style= ""width:200px""alt=""img"">
                                </div>
                            </div>","-64","","0","images/D1.png","","","","[""Random"",""Non-random""]"
"","","","","","html-slider-response","108","19659348","0.0-104.0","vuft52crq8","NaN","<div style=""width:500px;"">
                                <p style=""font-size:50px; font-weight:bold;""
                                ></p>
                                <div style=""width:240px; margin: auto;"">
                                    <img src=""images/D22.png"" style= ""width:200px""alt=""img"">
                                </div>
                            </div>","91","","0","images/D22.png","","","","[""Random"",""Non-random""]"
"","","","","","html-slider-response","109","19660565","0.0-105.0","vuft52crq8","NaN","<div style=""width:500px;"">
                                <p style=""font-size:50px; font-weight:bold;""
                                ></p>
                                <div style=""width:240px; margin: auto;"">
                                    <img src=""images/D104.png"" style= ""width:200px""alt=""img"">
                                </div>
                            </div>","-35","","0","images/D104.png","","","","[""Random"",""Non-random""]"
"","","","","","html-slider-response","110","19661664","0.0-106.0","vuft52crq8","NaN","<div style=""width:500px;"">
                                <p style=""font-size:50px; font-weight:bold;""
                                ></p>
                                <div style=""width:240px; margin: auto;"">
                                    <img src=""images/D92.png"" style= ""width:200px""alt=""img"">
                                </div>
                            </div>","161","","0","images/D92.png","","","","[""Random"",""Non-random""]"
"","","","","","html-slider-response","111","19662949","0.0-107.0","vuft52crq8","NaN","<div style=""width:500px;"">
                                <p style=""font-size:50px; font-weight:bold;""
                                ></p>
                                <div style=""width:240px; margin: auto;"">
                                    <img src=""images/D19.png"" style= ""width:200px""alt=""img"">
                                </div>
                            </div>","-85","","0","images/D19.png","","","","[""Random"",""Non-random""]"
"","","","","","html-slider-response","112","19663932","0.0-108.0","vuft52crq8","NaN","<div style=""width:500px;"">
                                <p style=""font-size:50px; font-weight:bold;""
                                ></p>
                                <div style=""width:240px; margin: auto;"">
                                    <img src=""images/D53.png"" style= ""width:200px""alt=""img"">
                                </div>
                            </div>","52","","0","images/D53.png","","","","[""Random"",""Non-random""]"
"","","","","","html-slider-response","113","19665066","0.0-109.0","vuft52crq8","NaN","<div style=""width:500px;"">
                                <p style=""font-size:50px; font-weight:bold;""
                                ></p>
                                <div style=""width:240px; margin: auto;"">
                                    <img src=""images/D47.png"" style= ""width:200px""alt=""img"">
                                </div>
                            </div>","-58","","0","images/D47.png","","","","[""Random"",""Non-random""]"
"","","","","","html-slider-response","114","19666964","0.0-110.0","vuft52crq8","NaN","<div style=""width:500px;"">
                                <p style=""font-size:50px; font-weight:bold;""
                                ></p>
                                <div style=""width:240px; margin: auto;"">
                                    <img src=""images/D87.png"" style= ""width:200px""alt=""img"">
                                </div>
                            </div>","106","","0","images/D87.png","","","","[""Random"",""Non-random""]"
"","","","","","html-slider-response","115","19668582","0.0-111.0","vuft52crq8","NaN","<div style=""width:500px;"">
                                <p style=""font-size:50px; font-weight:bold;""
                                ></p>
                                <div style=""width:240px; margin: auto;"">
                                    <img src=""images/D25.png"" style= ""width:200px""alt=""img"">
                                </div>
                            </div>","-78","","0","images/D25.png","","","","[""Random"",""Non-random""]"
"","","","","","html-slider-response","116","19669897","0.0-112.0","vuft52crq8","NaN","<div style=""width:500px;"">
                                <p style=""font-size:50px; font-weight:bold;""
                                ></p>
                                <div style=""width:240px; margin: auto;"">
                                    <img src=""images/D36.png"" style= ""width:200px""alt=""img"">
                                </div>
                            </div>","50","","0","images/D36.png","","","","[""Random"",""Non-random""]"
"","","","","","html-slider-response","117","19672714","0.0-113.0","vuft52crq8","NaN","<div style=""width:500px;"">
                                <p style=""font-size:50px; font-weight:bold;""
                                ></p>
                                <div style=""width:240px; margin: auto;"">
                                    <img src=""images/D18.png"" style= ""width:200px""alt=""img"">
                                </div>
                            </div>","-75","","0","images/D18.png","","","","[""Random"",""Non-random""]"
"","","","","","html-slider-response","118","19673950","0.0-114.0","vuft52crq8","NaN","<div style=""width:500px;"">
                                <p style=""font-size:50px; font-weight:bold;""
                                ></p>
                                <div style=""width:240px; margin: auto;"">
                                    <img src=""images/D102.png"" style= ""width:200px""alt=""img"">
                                </div>
                            </div>","54","","0","images/D102.png","","","","[""Random"",""Non-random""]"
"","","","","","html-slider-response","119","19675200","0.0-115.0","vuft52crq8","NaN","<div style=""width:500px;"">
                                <p style=""font-size:50px; font-weight:bold;""
                                ></p>
                                <div style=""width:240px; margin: auto;"">
                                    <img src=""images/D64.png"" style= ""width:200px""alt=""img"">
                                </div>
                            </div>","-76","","0","images/D64.png","","","","[""Random"",""Non-random""]"
"","","","","","html-slider-response","120","19676598","0.0-116.0","vuft52crq8","NaN","<div style=""width:500px;"">
                                <p style=""font-size:50px; font-weight:bold;""
                                ></p>
                                <div style=""width:240px; margin: auto;"">
                                    <img src=""images/D77.png"" style= ""width:200px""alt=""img"">
                                </div>
                            </div>","76","","0","images/D77.png","","","","[""Random"",""Non-random""]"
"","","","","","html-slider-response","121","19677967","0.0-117.0","vuft52crq8","NaN","<div style=""width:500px;"">
                                <p style=""font-size:50px; font-weight:bold;""
                                ></p>
                                <div style=""width:240px; margin: auto;"">
                                    <img src=""images/D51.png"" style= ""width:200px""alt=""img"">
                                </div>
                            </div>","-102","","0","images/D51.png","","","","[""Random"",""Non-random""]"
"","","","","","html-slider-response","122","19679267","0.0-118.0","vuft52crq8","NaN","<div style=""width:500px;"">
                                <p style=""font-size:50px; font-weight:bold;""
                                ></p>
                                <div style=""width:240px; margin: auto;"">
                                    <img src=""images/D4.png"" style= ""width:200px""alt=""img"">
                                </div>
                            </div>","82","","0","images/D4.png","","","","[""Random"",""Non-random""]"
"","","","","","html-slider-response","123","19680548","0.0-119.0","vuft52crq8","NaN","<div style=""width:500px;"">
                                <p style=""font-size:50px; font-weight:bold;""
                                ></p>
                                <div style=""width:240px; margin: auto;"">
                                    <img src=""images/D20.png"" style= ""width:200px""alt=""img"">
                                </div>
                            </div>","-82","","0","images/D20.png","","","","[""Random"",""Non-random""]"
"","","","","","html-slider-response","124","19681837","0.0-120.0","vuft52crq8","NaN","<div style=""width:500px;"">
                                <p style=""font-size:50px; font-weight:bold;""
                                ></p>
                                <div style=""width:240px; margin: auto;"">
                                    <img src=""images/D96.png"" style= ""width:200px""alt=""img"">
                                </div>
                            </div>","77","","0","images/D96.png","","","","[""Random"",""Non-random""]"
"","","","","","html-slider-response","125","19683248","0.0-121.0","vuft52crq8","NaN","<div style=""width:500px;"">
                                <p style=""font-size:50px; font-weight:bold;""
                                ></p>
                                <div style=""width:240px; margin: auto;"">
                                    <img src=""images/D55.png"" style= ""width:200px""alt=""img"">
                                </div>
                            </div>","-55","","0","images/D55.png","","","","[""Random"",""Non-random""]"
"","","","","","html-slider-response","126","19684498","0.0-122.0","vuft52crq8","NaN","<div style=""width:500px;"">
                                <p style=""font-size:50px; font-weight:bold;""
                                ></p>
                                <div style=""width:240px; margin: auto;"">
                                    <img src=""images/D101.png"" style= ""width:200px""alt=""img"">
                                </div>
                            </div>","78","","0","images/D101.png","","","","[""Random"",""Non-random""]"
"","","","","","html-slider-response","127","19685817","0.0-123.0","vuft52crq8","NaN","<div style=""width:500px;"">
                                <p style=""font-size:50px; font-weight:bold;""
                                ></p>
                                <div style=""width:240px; margin: auto;"">
                                    <img src=""images/D37.png"" style= ""width:200px""alt=""img"">
                                </div>
                            </div>","-56","","0","images/D37.png","","","","[""Random"",""Non-random""]"
"","","","","","html-slider-response","128","19687215","0.0-124.0","vuft52crq8","NaN","<div style=""width:500px;"">
                                <p style=""font-size:50px; font-weight:bold;""
                                ></p>
                                <div style=""width:240px; margin: auto;"">
                                    <img src=""images/D103.png"" style= ""width:200px""alt=""img"">
                                </div>
                            </div>","50","","0","images/D103.png","","","","[""Random"",""Non-random""]"
"","","","","","html-slider-response","129","19688566","0.0-125.0","vuft52crq8","NaN","<div style=""width:500px;"">
                                <p style=""font-size:50px; font-weight:bold;""
                                ></p>
                                <div style=""width:240px; margin: auto;"">
                                    <img src=""images/D11.png"" style= ""width:200px""alt=""img"">
                                </div>
                            </div>","7","","0","images/D11.png","","","","[""Random"",""Non-random""]"
"","","","","","html-slider-response","130","19689748","0.0-126.0","vuft52crq8","NaN","<div style=""width:500px;"">
                                <p style=""font-size:50px; font-weight:bold;""
                                ></p>
                                <div style=""width:240px; margin: auto;"">
                                    <img src=""images/D68.png"" style= ""width:200px""alt=""img"">
                                </div>
                            </div>","86","","0","images/D68.png","","","","[""Random"",""Non-random""]"
"","","","","","html-slider-response","131","19691681","0.0-127.0","vuft52crq8","NaN","<div style=""width:500px;"">
                                <p style=""font-size:50px; font-weight:bold;""
                                ></p>
                                <div style=""width:240px; margin: auto;"">
                                    <img src=""images/D29.png"" style= ""width:200px""alt=""img"">
                                </div>
                            </div>","6","","0","images/D29.png","","","","[""Random"",""Non-random""]"
"","","","","","html-slider-response","132","19693381","0.0-128.0","vuft52crq8","NaN","<div style=""width:500px;"">
                                <p style=""font-size:50px; font-weight:bold;""
                                ></p>
                                <div style=""width:240px; margin: auto;"">
                                    <img src=""images/D35.png"" style= ""width:200px""alt=""img"">
                                </div>
                            </div>","65","","0","images/D35.png","","","","[""Random"",""Non-random""]"
"","","","","","html-slider-response","133","19694766","0.0-129.0","vuft52crq8","NaN","<div style=""width:500px;"">
                                <p style=""font-size:50px; font-weight:bold;""
                                ></p>
                                <div style=""width:240px; margin: auto;"">
                                    <img src=""images/D80.png"" style= ""width:200px""alt=""img"">
                                </div>
                            </div>","-17","","0","images/D80.png","","","","[""Random"",""Non-random""]"
"","","","","","html-slider-response","134","19695947","0.0-130.0","vuft52crq8","NaN","<div style=""width:500px;"">
                                <p style=""font-size:50px; font-weight:bold;""
                                ></p>
                                <div style=""width:240px; margin: auto;"">
                                    <img src=""images/D6.png"" style= ""width:200px""alt=""img"">
                                </div>
                            </div>","66","","0","images/D6.png","","","","[""Random"",""Non-random""]"
"","","","","","html-slider-response","135","19697281","0.0-131.0","vuft52crq8","NaN","<div style=""width:500px;"">
                                <p style=""font-size:50px; font-weight:bold;""
                                ></p>
                                <div style=""width:240px; margin: auto;"">
                                    <img src=""images/D82.png"" style= ""width:200px""alt=""img"">
                                </div>
                            </div>","-90","","0","images/D82.png","","","","[""Random"",""Non-random""]"
"","","","","","html-slider-response","136","19698581","0.0-132.0","vuft52crq8","NaN","<div style=""width:500px;"">
                                <p style=""font-size:50px; font-weight:bold;""
                                ></p>
                                <div style=""width:240px; margin: auto;"">
                                    <img src=""images/D75.png"" style= ""width:200px""alt=""img"">
                                </div>
                            </div>","60","","0","images/D75.png","","","","[""Random"",""Non-random""]"
"","","","","","html-slider-response","137","19699783","0.0-133.0","vuft52crq8","NaN","<div style=""width:500px;"">
                                <p style=""font-size:50px; font-weight:bold;""
                                ></p>
                                <div style=""width:240px; margin: auto;"">
                                    <img src=""images/D52.png"" style= ""width:200px""alt=""img"">
                                </div>
                            </div>","-55","","0","images/D52.png","","","","[""Random"",""Non-random""]"
"","","","","","html-slider-response","138","19701017","0.0-134.0","vuft52crq8","NaN","<div style=""width:500px;"">
                                <p style=""font-size:50px; font-weight:bold;""
                                ></p>
                                <div style=""width:240px; margin: auto;"">
                                    <img src=""images/D24.png"" style= ""width:200px""alt=""img"">
                                </div>
                            </div>","56","","0","images/D24.png","","","","[""Random"",""Non-random""]"
"","","","","","html-slider-response","139","19702383","0.0-135.0","vuft52crq8","NaN","<div style=""width:500px;"">
                                <p style=""font-size:50px; font-weight:bold;""
                                ></p>
                                <div style=""width:240px; margin: auto;"">
                                    <img src=""images/D48.png"" style= ""width:200px""alt=""img"">
                                </div>
                            </div>","-50","","0","images/D48.png","","","","[""Random"",""Non-random""]"
"","","","","","html-slider-response","140","19703648","0.0-136.0","vuft52crq8","NaN","<div style=""width:500px;"">
                                <p style=""font-size:50px; font-weight:bold;""
                                ></p>
                                <div style=""width:240px; margin: auto;"">
                                    <img src=""images/D8.png"" style= ""width:200px""alt=""img"">
                                </div>
                            </div>","76","","0","images/D8.png","","","","[""Random"",""Non-random""]"
"","","","","","html-slider-response","141","19705014","0.0-137.0","vuft52crq8","NaN","<div style=""width:500px;"">
                                <p style=""font-size:50px; font-weight:bold;""
                                ></p>
                                <div style=""width:240px; margin: auto;"">
                                    <img src=""images/D21.png"" style= ""width:200px""alt=""img"">
                                </div>
                            </div>","-38","","0","images/D21.png","","","","[""Random"",""Non-random""]"
"","","","","","html-slider-response","142","19706264","0.0-138.0","vuft52crq8","NaN","<div style=""width:500px;"">
                                <p style=""font-size:50px; font-weight:bold;""
                                ></p>
                                <div style=""width:240px; margin: auto;"">
                                    <img src=""images/D32.png"" style= ""width:200px""alt=""img"">
                                </div>
                            </div>","107","","0","images/D32.png","","","","[""Random"",""Non-random""]"
"","","","","","html-slider-response","143","19707698","0.0-139.0","vuft52crq8","NaN","<div style=""width:500px;"">
                                <p style=""font-size:50px; font-weight:bold;""
                                ></p>
                                <div style=""width:240px; margin: auto;"">
                                    <img src=""images/D34.png"" style= ""width:200px""alt=""img"">
                                </div>
                            </div>","-82","","0","images/D34.png","","","","[""Random"",""Non-random""]"
"","","","","","html-button-response","144","19709636","0.0-140.0","vuft52crq8","1436","You have completed the second block of trials out of six. Please click 'Continue' when you are ready proceed.","0","","","","","","",""
"","","","","","html-button-response","145","19710970","0.0-141.0","vuft52crq8","1333","In the following trials, you will be asked to rate textures on the scale <b>Blobby</b> versus <b>Stripey</b>. Please click 'Continue' when you are ready proceed.","0","","","","","","",""
"","","","","","html-slider-response","146","19713132","0.0-142.0","vuft52crq8","NaN","<div style=""width:500px;"">
                                <p style=""font-size:50px; font-weight:bold;""
                                ></p>
                                <div style=""width:240px; margin: auto;"">
                                    <img src=""images/D76.png"" style= ""width:200px""alt=""img"">
                                </div>
                            </div>","-15","","0","images/D76.png","","","","[""Blobby"",""Stripey""]"
"","","","","","html-slider-response","147","19714415","0.0-143.0","vuft52crq8","NaN","<div style=""width:500px;"">
                                <p style=""font-size:50px; font-weight:bold;""
                                ></p>
                                <div style=""width:240px; margin: auto;"">
                                    <img src=""images/D3.png"" style= ""width:200px""alt=""img"">
                                </div>
                            </div>","50","","0","images/D3.png","","","","[""Blobby"",""Stripey""]"
"","","","","","html-slider-response","148","19715480","0.0-144.0","vuft52crq8","NaN","<div style=""width:500px;"">
                                <p style=""font-size:50px; font-weight:bold;""
                                ></p>
                                <div style=""width:240px; margin: auto;"">
                                    <img src=""images/D56.png"" style= ""width:200px""alt=""img"">
                                </div>
                            </div>","-52","","0","images/D56.png","","","","[""Blobby"",""Stripey""]"
"","","","","","html-slider-response","149","19716847","0.0-145.0","vuft52crq8","NaN","<div style=""width:500px;"">
                                <p style=""font-size:50px; font-weight:bold;""
                                ></p>
                                <div style=""width:240px; margin: auto;"">
                                    <img src=""images/D106.png"" style= ""width:200px""alt=""img"">
                                </div>
                            </div>","52","","0","images/D106.png","","","","[""Blobby"",""Stripey""]"
"","","","","","html-slider-response","150","19718214","0.0-146.0","vuft52crq8","NaN","<div style=""width:500px;"">
                                <p style=""font-size:50px; font-weight:bold;""
                                ></p>
                                <div style=""width:240px; margin: auto;"">
                                    <img src=""images/D14.png"" style= ""width:200px""alt=""img"">
                                </div>
                            </div>","-49","","0","images/D14.png","","","","[""Blobby"",""Stripey""]"
"","","","","","html-slider-response","151","19719383","0.0-147.0","vuft52crq8","NaN","<div style=""width:500px;"">
                                <p style=""font-size:50px; font-weight:bold;""
                                ></p>
                                <div style=""width:240px; margin: auto;"">
                                    <img src=""images/D94.png"" style= ""width:200px""alt=""img"">
                                </div>
                            </div>","38","","0","images/D94.png","","","","[""Blobby"",""Stripey""]"
"","","","","","html-slider-response","152","19720632","0.0-148.0","vuft52crq8","NaN","<div style=""width:500px;"">
                                <p style=""font-size:50px; font-weight:bold;""
                                ></p>
                                <div style=""width:240px; margin: auto;"">
                                    <img src=""images/D78.png"" style= ""width:200px""alt=""img"">
                                </div>
                            </div>","-69","","0","images/D78.png","","","","[""Blobby"",""Stripey""]"
"","","","","","html-slider-response","153","19721880","0.0-149.0","vuft52crq8","NaN","<div style=""width:500px;"">
                                <p style=""font-size:50px; font-weight:bold;""
                                ></p>
                                <div style=""width:240px; margin: auto;"">
                                    <img src=""images/D74.png"" style= ""width:200px""alt=""img"">
                                </div>
                            </div>","34","","0","images/D74.png","","","","[""Blobby"",""Stripey""]"
"","","","","","html-slider-response","154","19723197","0.0-150.0","vuft52crq8","NaN","<div style=""width:500px;"">
                                <p style=""font-size:50px; font-weight:bold;""
                                ></p>
                                <div style=""width:240px; margin: auto;"">
                                    <img src=""images/D95.png"" style= ""width:200px""alt=""img"">
                                </div>
                            </div>","-24","","0","images/D95.png","","","","[""Blobby"",""Stripey""]"
"","","","","","html-slider-response","155","19724347","0.0-151.0","vuft52crq8","NaN","<div style=""width:500px;"">
                                <p style=""font-size:50px; font-weight:bold;""
                                ></p>
                                <div style=""width:240px; margin: auto;"">
                                    <img src=""images/D83.png"" style= ""width:200px""alt=""img"">
                                </div>
                            </div>","87","","0","images/D83.png","","","","[""Blobby"",""Stripey""]"
"","","","","","html-slider-response","156","19725549","0.0-152.0","vuft52crq8","NaN","<div style=""width:500px;"">
                                <p style=""font-size:50px; font-weight:bold;""
                                ></p>
                                <div style=""width:240px; margin: auto;"">
                                    <img src=""images/D84.png"" style= ""width:200px""alt=""img"">
                                </div>
                            </div>","-46","","0","images/D84.png","","","","[""Blobby"",""Stripey""]"
"","","","","","html-slider-response","157","19726664","0.0-153.0","vuft52crq8","NaN","<div style=""width:500px;"">
                                <p style=""font-size:50px; font-weight:bold;""
                                ></p>
                                <div style=""width:240px; margin: auto;"">
                                    <img src=""images/D49.png"" style= ""width:200px""alt=""img"">
                                </div>
                            </div>","46","","0","images/D49.png","","","","[""Blobby"",""Stripey""]"
"","","","","","html-slider-response","158","19727747","0.0-154.0","vuft52crq8","NaN","<div style=""width:500px;"">
                                <p style=""font-size:50px; font-weight:bold;""
                                ></p>
                                <div style=""width:240px; margin: auto;"">
                                    <img src=""images/D105.png"" style= ""width:200px""alt=""img"">
                                </div>
                            </div>","-30","","0","images/D105.png","","","","[""Blobby"",""Stripey""]"
"","","","","","html-slider-response","159","19728848","0.0-155.0","vuft52crq8","NaN","<div style=""width:500px;"">
                                <p style=""font-size:50px; font-weight:bold;""
                                ></p>
                                <div style=""width:240px; margin: auto;"">
                                    <img src=""images/D46.png"" style= ""width:200px""alt=""img"">
                                </div>
                            </div>","71","","0","images/D46.png","","","","[""Blobby"",""Stripey""]"
"","","","","","html-slider-response","160","19730083","0.0-156.0","vuft52crq8","NaN","<div style=""width:500px;"">
                                <p style=""font-size:50px; font-weight:bold;""
                                ></p>
                                <div style=""width:240px; margin: auto;"">
                                    <img src=""images/D16.png"" style= ""width:200px""alt=""img"">
                                </div>
                            </div>","-20","","0","images/D16.png","","","","[""Blobby"",""Stripey""]"
"","","","","","html-slider-response","161","19731430","0.0-157.0","vuft52crq8","NaN","<div style=""width:500px;"">
                                <p style=""font-size:50px; font-weight:bold;""
                                ></p>
                                <div style=""width:240px; margin: auto;"">
                                    <img src=""images/D65.png"" style= ""width:200px""alt=""img"">
                                </div>
                            </div>","74","","0","images/D65.png","","","","[""Blobby"",""Stripey""]"
"","","","","","html-slider-response","162","19732665","0.0-158.0","vuft52crq8","NaN","<div style=""width:500px;"">
                                <p style=""font-size:50px; font-weight:bold;""
                                ></p>
                                <div style=""width:240px; margin: auto;"">
                                    <img src=""images/D81.png"" style= ""width:200px""alt=""img"">
                                </div>
                            </div>","-2","","0","images/D81.png","","","","[""Blobby"",""Stripey""]"
"","","","","","html-slider-response","163","19733915","0.0-159.0","vuft52crq8","NaN","<div style=""width:500px;"">
                                <p style=""font-size:50px; font-weight:bold;""
                                ></p>
                                <div style=""width:240px; margin: auto;"">
                                    <img src=""images/D17.png"" style= ""width:200px""alt=""img"">
                                </div>
                            </div>","65","","0","images/D17.png","","","","[""Blobby"",""Stripey""]"
"","","","","","html-slider-response","164","19735114","0.0-160.0","vuft52crq8","NaN","<div style=""width:500px;"">
                                <p style=""font-size:50px; font-weight:bold;""
                                ></p>
                                <div style=""width:240px; margin: auto;"">
                                    <img src=""images/D111.png"" style= ""width:200px""alt=""img"">
                                </div>
                            </div>","-38","","0","images/D111.png","","","","[""Blobby"",""Stripey""]"
"","","","","","html-slider-response","165","19736414","0.0-161.0","vuft52crq8","NaN","<div style=""width:500px;"">
                                <p style=""font-size:50px; font-weight:bold;""
                                ></p>
                                <div style=""width:240px; margin: auto;"">
                                    <img src=""images/D57.png"" style= ""width:200px""alt=""img"">
                                </div>
                            </div>","38","","0","images/D57.png","","","","[""Blobby"",""Stripey""]"
"","","","","","html-slider-response","166","19737581","0.0-162.0","vuft52crq8","NaN","<div style=""width:500px;"">
                                <p style=""font-size:50px; font-weight:bold;""
                                ></p>
                                <div style=""width:240px; margin: auto;"">
                                    <img src=""images/D85.png"" style= ""width:200px""alt=""img"">
                                </div>
                            </div>","-22","","0","images/D85.png","","","","[""Blobby"",""Stripey""]"
"","","","","","html-slider-response","167","19738881","0.0-163.0","vuft52crq8","NaN","<div style=""width:500px;"">
                                <p style=""font-size:50px; font-weight:bold;""
                                ></p>
                                <div style=""width:240px; margin: auto;"">
                                    <img src=""images/D26.png"" style= ""width:200px""alt=""img"">
                                </div>
                            </div>","54","","0","images/D26.png","","","","[""Blobby"",""Stripey""]"
"","","","","","html-slider-response","168","19740164","0.0-164.0","vuft52crq8","NaN","<div style=""width:500px;"">
                                <p style=""font-size:50px; font-weight:bold;""
                                ></p>
                                <div style=""width:240px; margin: auto;"">
                                    <img src=""images/D9.png"" style= ""width:200px""alt=""img"">
                                </div>
                            </div>","-39","","0","images/D9.png","","","","[""Blobby"",""Stripey""]"
"","","","","","html-slider-response","169","19741514","0.0-165.0","vuft52crq8","NaN","<div style=""width:500px;"">
                                <p style=""font-size:50px; font-weight:bold;""
                                ></p>
                                <div style=""width:240px; margin: auto;"">
                                    <img src=""images/D79.png"" style= ""width:200px""alt=""img"">
                                </div>
                            </div>","75","","0","images/D79.png","","","","[""Blobby"",""Stripey""]"
"","","","","","html-slider-response","170","19742715","0.0-166.0","vuft52crq8","NaN","<div style=""width:500px;"">
                                <p style=""font-size:50px; font-weight:bold;""
                                ></p>
                                <div style=""width:240px; margin: auto;"">
                                    <img src=""images/D66.png"" style= ""width:200px""alt=""img"">
                                </div>
                            </div>","-29","","0","images/D66.png","","","","[""Blobby"",""Stripey""]"
"","","","","","html-slider-response","171","19743966","0.0-167.0","vuft52crq8","NaN","<div style=""width:500px;"">
                                <p style=""font-size:50px; font-weight:bold;""
                                ></p>
                                <div style=""width:240px; margin: auto;"">
                                    <img src=""images/D1.png"" style= ""width:200px""alt=""img"">
                                </div>
                            </div>","66","","0","images/D1.png","","","","[""Blobby"",""Stripey""]"
"","","","","","html-slider-response","172","19745183","0.0-168.0","vuft52crq8","NaN","<div style=""width:500px;"">
                                <p style=""font-size:50px; font-weight:bold;""
                                ></p>
                                <div style=""width:240px; margin: auto;"">
                                    <img src=""images/D22.png"" style= ""width:200px""alt=""img"">
                                </div>
                            </div>","-44","","0","images/D22.png","","","","[""Blobby"",""Stripey""]"
"","","","","","html-slider-response","173","19746264","0.0-169.0","vuft52crq8","NaN","<div style=""width:500px;"">
                                <p style=""font-size:50px; font-weight:bold;""
                                ></p>
                                <div style=""width:240px; margin: auto;"">
                                    <img src=""images/D104.png"" style= ""width:200px""alt=""img"">
                                </div>
                            </div>","78","","0","images/D104.png","","","","[""Blobby"",""Stripey""]"
"","","","","","html-slider-response","174","19747497","0.0-170.0","vuft52crq8","NaN","<div style=""width:500px;"">
                                <p style=""font-size:50px; font-weight:bold;""
                                ></p>
                                <div style=""width:240px; margin: auto;"">
                                    <img src=""images/D92.png"" style= ""width:200px""alt=""img"">
                                </div>
                            </div>","-77","","0","images/D92.png","","","","[""Blobby"",""Stripey""]"
"","","","","","html-slider-response","175","19748797","0.0-171.0","vuft52crq8","NaN","<div style=""width:500px;"">
                                <p style=""font-size:50px; font-weight:bold;""
                                ></p>
                                <div style=""width:240px; margin: auto;"">
                                    <img src=""images/D19.png"" style= ""width:200px""alt=""img"">
                                </div>
                            </div>","51","","0","images/D19.png","","","","[""Blobby"",""Stripey""]"
"","","","","","html-slider-response","176","19750184","0.0-172.0","vuft52crq8","NaN","<div style=""width:500px;"">
                                <p style=""font-size:50px; font-weight:bold;""
                                ></p>
                                <div style=""width:240px; margin: auto;"">
                                    <img src=""images/D53.png"" style= ""width:200px""alt=""img"">
                                </div>
                            </div>","-100","","0","images/D53.png","","","","[""Blobby"",""Stripey""]"
"","","","","","html-slider-response","177","19751481","0.0-173.0","vuft52crq8","NaN","<div style=""width:500px;"">
                                <p style=""font-size:50px; font-weight:bold;""
                                ></p>
                                <div style=""width:240px; margin: auto;"">
                                    <img src=""images/D47.png"" style= ""width:200px""alt=""img"">
                                </div>
                            </div>","58","","0","images/D47.png","","","","[""Blobby"",""Stripey""]"
"","","","","","html-slider-response","178","19752765","0.0-174.0","vuft52crq8","NaN","<div style=""width:500px;"">
                                <p style=""font-size:50px; font-weight:bold;""
                                ></p>
                                <div style=""width:240px; margin: auto;"">
                                    <img src=""images/D87.png"" style= ""width:200px""alt=""img"">
                                </div>
                            </div>","-57","","0","images/D87.png","","","","[""Blobby"",""Stripey""]"
"","","","","","html-slider-response","179","19753931","0.0-175.0","vuft52crq8","NaN","<div style=""width:500px;"">
                                <p style=""font-size:50px; font-weight:bold;""
                                ></p>
                                <div style=""width:240px; margin: auto;"">
                                    <img src=""images/D25.png"" style= ""width:200px""alt=""img"">
                                </div>
                            </div>","42","","0","images/D25.png","","","","[""Blobby"",""Stripey""]"
"","","","","","html-slider-response","180","19755300","0.0-176.0","vuft52crq8","NaN","<div style=""width:500px;"">
                                <p style=""font-size:50px; font-weight:bold;""
                                ></p>
                                <div style=""width:240px; margin: auto;"">
                                    <img src=""images/D36.png"" style= ""width:200px""alt=""img"">
                                </div>
                            </div>","-55","","0","images/D36.png","","","","[""Blobby"",""Stripey""]"
"","","","","","html-slider-response","181","19756631","0.0-177.0","vuft52crq8","NaN","<div style=""width:500px;"">
                                <p style=""font-size:50px; font-weight:bold;""
                                ></p>
                                <div style=""width:240px; margin: auto;"">
                                    <img src=""images/D18.png"" style= ""width:200px""alt=""img"">
                                </div>
                            </div>","30","","0","images/D18.png","","","","[""Blobby"",""Stripey""]"
"","","","","","html-slider-response","182","19757964","0.0-178.0","vuft52crq8","NaN","<div style=""width:500px;"">
                                <p style=""font-size:50px; font-weight:bold;""
                                ></p>
                                <div style=""width:240px; margin: auto;"">
                                    <img src=""images/D102.png"" style= ""width:200px""alt=""img"">
                                </div>
                            </div>","-56","","0","images/D102.png","","","","[""Blobby"",""Stripey""]"
"","","","","","html-slider-response","183","19758998","0.0-179.0","vuft52crq8","NaN","<div style=""width:500px;"">
                                <p style=""font-size:50px; font-weight:bold;""
                                ></p>
                                <div style=""width:240px; margin: auto;"">
                                    <img src=""images/D64.png"" style= ""width:200px""alt=""img"">
                                </div>
                            </div>","74","","0","images/D64.png","","","","[""Blobby"",""Stripey""]"
"","","","","","html-slider-response","184","19760299","0.0-180.0","vuft52crq8","NaN","<div style=""width:500px;"">
                                <p style=""font-size:50px; font-weight:bold;""
                                ></p>
                                <div style=""width:240px; margin: auto;"">
                                    <img src=""images/D77.png"" style= ""width:200px""alt=""img"">
                                </div>
                            </div>","-43","","0","images/D77.png","","","","[""Blobby"",""Stripey""]"
"","","","","","html-slider-response","185","19761683","0.0-181.0","vuft52crq8","NaN","<div style=""width:500px;"">
                                <p style=""font-size:50px; font-weight:bold;""
                                ></p>
                                <div style=""width:240px; margin: auto;"">
                                    <img src=""images/D51.png"" style= ""width:200px""alt=""img"">
                                </div>
                            </div>","61","","0","images/D51.png","","","","[""Blobby"",""Stripey""]"
"","","","","","html-slider-response","186","19763015","0.0-182.0","vuft52crq8","NaN","<div style=""width:500px;"">
                                <p style=""font-size:50px; font-weight:bold;""
