"success","timeout","failed_images","failed_audio","failed_video","trial_type","trial_index","time_elapsed","internal_node_id","subject_id","rt","stimulus","response","question_order","slider_start","image_path","practiceTrial","practiceTrialNum","correct","slider_labels"
"true","false","[]","[]","[]","preload","0","48","0.0-0.0","wc3vdm0vz5","","","","","","","","","",""
"","","","","","html-button-response","1","1065","0.0-1.0","wc3vdm0vz5","1015","<div style='text-align:center; font-size:20px; line-height:25px; width: 1200px;'>
                Welcome to our experiment! <br>
                <br>At the bottom of this screen, you will see a button that says 'Begin Experiment.
                <br>Please only click that button when you are ready to complete the 25 minute experiment in one sitting. <br>
                <br> Once you click that button, it will not be possible to restart the experiment. <br><br>","0","","","","","","",""
"true","","","","","fullscreen","2","3130","0.0-2.0","wc3vdm0vz5","1061","","","","","","","","",""
"","","","","","survey-multi-select","3","7266","0.0-3.0","wc3vdm0vz5","4131","","{""Consent"":[""<strong>I consent</strong>""]}","[0]","","","","","",""
"","","","","","html-button-response","4","9190","0.0-4.0","wc3vdm0vz5","1922","Welcome! <p> This experiment involves two parts: demographic information, followed by the experimental task.<p> It will take about 25 minutes to complete both parts.","0","","","","","","",""
"","","","","","survey-text","5","17025","0.0-5.0","wc3vdm0vz5","7818","","{""Age"":""19"",""Gender"":""female"",""Race/ethnicity"":""white""}","","","","","","",""
"","","","","","html-slider-response","6","18373","0.0-6.0","wc3vdm0vz5","1344","
                <div style='text-align:center; height: auto; margin-left=-100px; margin-bottom: -20px; font-size:20px; line-height:5px; width: 1200px;'>
                    <br>During this experiment, you will see a series of textures, one at a time, like the ones below: 
                </div>
                    <br>
                    <br>
                    <img src=""anchoring_visual_textures.png"" alt=""img"" style=""max-width:1200px; margin-left: -10px;"">
                </div>
                <div style=""clear: both;""></div>
                </div>
                    <div style='text-align:center; margin-left=-100px; font-size:20px; line-height:20px; width: 1200px; margin-top: -50px;'>
                    
                    <br> For each texture, you will be asked to rate where you think it falls on each of the response scales with the following endpoints:
                    </div>
                            <div style=""text-align: center; width: 1400px; "">
                                <p style=""font-size:20px; line-height:5px; ""><b>Blobby</b> versus <b>Stripey</b></p>
                                <p style=""font-size:20px; line-height:5px; ""><b>Rounded</b> versus <b>Rectangular</b></p>
                                <p style=""font-size:20px;line-height:5px;""><b>Coarse</b> versus <b>Fine</b></p>
                                <p style=""font-size:20px;line-height:5px; ""><b>Rough</b> versus <b>Smooth</b></p>
                                <p style=""font-size:20px;line-height:5px; ""><b>Random</b> versus <b>Non-Random</b></p>
                                <p style=""font-size:20px;line-height:5px;""><b>Hard</b> versus <b>Soft</b></p>
                            </div>
                            <div style='text-align:center; font-size:20px; line-height:20px; width: 1400px;'>
                    
                    Each trial will include one texture and one response scale. You will be asked to make your rating by sliding the cursor along a slider response scale like the one below.
                    <br><br> Before beginning, please look at the textures and scales. For each scale, think about the texture you associate most with the left endpoint. When you see that texture for that response scale, please click near the left of the scale.
                    <br><br> Now, please think about the texture you associate most with the right endpoint of each scale. When you see that texture for that response scale, please click near the right of the scale. 
                    <br><br> If you think a texture is not strongly associated with either endpoint of the scale, please click near the midpoint of the scale. Please use the full range of the scale. 
                    <br><br> You will be asked to rate each texture for a given scale before moving on to the next scale.
                    <br><br> Please press the 'Continue' button for instructions on how to use the slider.                     <br><br>
                ","null","","0","visual_textures_anchoring.png","true","","",""
"","","","","","html-button-response","7","19413","0.0-7.0","wc3vdm0vz5","1040","<div style=""width:1200px; margin-top:-150px;""><p style=""text-align:center; font-size:24px;"">To move the slider, click and drag your cursor to the location of the scale where you would like to make your rating and then let go. <br><br> When you let go of the slider, your response will be recorded and the next trial will begin. <br><br><br>
                We are interested in your initial impressions of each texture and scale, so please go with your first intuition. <br><br>
                Before you begin the experiment, there will be four training trials for you to practice using the scale. <br><br><br><br></div>
                <div style=""width:1200px;""><p style=""text-align:center; font-size:20px;"">When you are ready to start the training trials, please click ""Continue"".</p></div>","0","","","","","","",""
"","","","","","html-slider-response","8","22462","0.0-8.0-0.0","wc3vdm0vz5","NaN","<div style=""width:500px;"">
                                <p style=""font-size:25px;"">Please move the slider all the way to the <br> right endpoint of the scale</p>

                                </div>
                            </div>","200","","0","","true","0","true",""
"","","","","","html-button-response","9","23731","0.0-8.0-1.0","wc3vdm0vz5","766","<p align='center'><b>Good job!</b> Click on 'Continue' to proceed.</p>","0","","","","","","",""
"","","","","","html-slider-response","10","24800","0.0-9.0-0.0","wc3vdm0vz5","NaN","<div style=""width:500px;"">
                                <p style=""font-size:25px;"">Please move the slider all the way to the <br> left endpoint of the scale</p>

                                </div>
                            </div>","-194","","0","","true","1","true",""
"","","","","","html-button-response","11","26514","0.0-9.0-1.0","wc3vdm0vz5","1212","<p align='center'><b>Good job!</b> Click on 'Continue' to proceed.</p>","0","","","","","","",""
"","","","","","html-slider-response","12","29921","0.0-10.0-0.0","wc3vdm0vz5","NaN","<div style=""width:500px;"">
                                <p style=""font-size:25px;"">Please move the slider halfway between the center and right endpoint of the scale</p>

                                </div>
                            </div>","101","","0","","true","2","true",""
"","","","","","html-button-response","13","32033","0.0-10.0-1.0","wc3vdm0vz5","1609","<p align='center'><b>Good job!</b> Click on 'Continue' to proceed.</p>","0","","","","","","",""
"","","","","","html-slider-response","14","33021","0.0-11.0-0.0","wc3vdm0vz5","NaN","<div style=""width:500px;"">
                                <p style=""font-size:25px;"">Please move the slider halfway between the center and left endpoint of the scale</p>

                                </div>
                            </div>","-109","","0","","true","3","true",""
"","","","","","html-button-response","15","34354","0.0-11.0-1.0","wc3vdm0vz5","830","<p align='center'><b>Good job!</b> Click on 'Continue' to proceed.</p>","0","","","","","","",""
"","","","","","html-button-response","16","35260","0.0-12.0","wc3vdm0vz5","904","<div style=""width:800px; margin-top:-300px;""><p style=""text-align:center; font-size:22px; line-height:25px;""""> Great job! You've completed the practice trials.</div>
                     <div style=""width:800px; margin-top:-20px;""><p style=""text-align:center""><br><br> In the following trials, you will be asked to rate textures on each scale one-by-one. <br> You will be given opportunities to take breaks when you have completed each block of trials. There are six total blocks of trials. <br><br> Please click continue to begin the main task.<br><br><br> </div>","0","","","","","","",""
"","","","","","html-button-response","17","35890","0.0-13.0","wc3vdm0vz5","629","In the following trials, you will be asked to rate textures on the scale <b>Random</b> versus <b>Non-Random</b>. Please click 'Continue' when you are ready proceed.","0","","","","","","",""
"","","","","","html-slider-response","18","42896","0.0-14.0","wc3vdm0vz5","NaN","<div style=""width:500px;"">
                                <p style=""font-size:50px; font-weight:bold;""
                                ></p>
                                <div style=""width:240px; margin: auto;"">
                                    <img src=""images/D14.png"" style= ""width:200px""alt=""img"">
                                </div>
                            </div>","-129","","0","images/D14.png","","","","[""Random"",""Non-random""]"
"","","","","","html-slider-response","19","44160","0.0-15.0","wc3vdm0vz5","NaN","<div style=""width:500px;"">
                                <p style=""font-size:50px; font-weight:bold;""
                                ></p>
                                <div style=""width:240px; margin: auto;"">
                                    <img src=""images/D18.png"" style= ""width:200px""alt=""img"">
                                </div>
                            </div>","-90","","0","images/D18.png","","","","[""Random"",""Non-random""]"
"","","","","","html-slider-response","20","45679","0.0-16.0","wc3vdm0vz5","NaN","<div style=""width:500px;"">
                                <p style=""font-size:50px; font-weight:bold;""
                                ></p>
                                <div style=""width:240px; margin: auto;"">
                                    <img src=""images/D92.png"" style= ""width:200px""alt=""img"">
                                </div>
                            </div>","-106","","0","images/D92.png","","","","[""Random"",""Non-random""]"
"","","","","","html-slider-response","21","46966","0.0-17.0","wc3vdm0vz5","NaN","<div style=""width:500px;"">
                                <p style=""font-size:50px; font-weight:bold;""
                                ></p>
                                <div style=""width:240px; margin: auto;"">
                                    <img src=""images/D68.png"" style= ""width:200px""alt=""img"">
                                </div>
                            </div>","-182","","0","images/D68.png","","","","[""Random"",""Non-random""]"
"","","","","","html-slider-response","22","48008","0.0-18.0","wc3vdm0vz5","NaN","<div style=""width:500px;"">
                                <p style=""font-size:50px; font-weight:bold;""
                                ></p>
                                <div style=""width:240px; margin: auto;"">
                                    <img src=""images/D75.png"" style= ""width:200px""alt=""img"">
                                </div>
                            </div>","-185","","0","images/D75.png","","","","[""Random"",""Non-random""]"
"","","","","","html-slider-response","23","48994","0.0-19.0","wc3vdm0vz5","NaN","<div style=""width:500px;"">
                                <p style=""font-size:50px; font-weight:bold;""
                                ></p>
                                <div style=""width:240px; margin: auto;"">
                                    <img src=""images/D17.png"" style= ""width:200px""alt=""img"">
                                </div>
                            </div>","-184","","0","images/D17.png","","","","[""Random"",""Non-random""]"
"","","","","","html-slider-response","24","49932","0.0-20.0","wc3vdm0vz5","NaN","<div style=""width:500px;"">
                                <p style=""font-size:50px; font-weight:bold;""
                                ></p>
                                <div style=""width:240px; margin: auto;"">
                                    <img src=""images/D16.png"" style= ""width:200px""alt=""img"">
                                </div>
                            </div>","-194","","0","images/D16.png","","","","[""Random"",""Non-random""]"
"","","","","","html-slider-response","25","51093","0.0-21.0","wc3vdm0vz5","NaN","<div style=""width:500px;"">
                                <p style=""font-size:50px; font-weight:bold;""
                                ></p>
                                <div style=""width:240px; margin: auto;"">
                                    <img src=""images/D82.png"" style= ""width:200px""alt=""img"">
                                </div>
                            </div>","-192","","0","images/D82.png","","","","[""Random"",""Non-random""]"
"","","","","","html-slider-response","26","51801","0.0-22.0","wc3vdm0vz5","NaN","<div style=""width:500px;"">
                                <p style=""font-size:50px; font-weight:bold;""
                                ></p>
                                <div style=""width:240px; margin: auto;"">
                                    <img src=""images/D8.png"" style= ""width:200px""alt=""img"">
                                </div>
                            </div>","-193","","0","images/D8.png","","","","[""Random"",""Non-random""]"
"","","","","","html-slider-response","27","53653","0.0-23.0","wc3vdm0vz5","NaN","<div style=""width:500px;"">
                                <p style=""font-size:50px; font-weight:bold;""
                                ></p>
                                <div style=""width:240px; margin: auto;"">
                                    <img src=""images/D25.png"" style= ""width:200px""alt=""img"">
                                </div>
                            </div>","15","","0","images/D25.png","","","","[""Random"",""Non-random""]"
"","","","","","html-slider-response","28","54535","0.0-24.0","wc3vdm0vz5","NaN","<div style=""width:500px;"">
                                <p style=""font-size:50px; font-weight:bold;""
                                ></p>
                                <div style=""width:240px; margin: auto;"">
                                    <img src=""images/D52.png"" style= ""width:200px""alt=""img"">
                                </div>
                            </div>","-38","","0","images/D52.png","","","","[""Random"",""Non-random""]"
"","","","","","html-slider-response","29","55196","0.0-25.0","wc3vdm0vz5","NaN","<div style=""width:500px;"">
                                <p style=""font-size:50px; font-weight:bold;""
                                ></p>
                                <div style=""width:240px; margin: auto;"">
                                    <img src=""images/D48.png"" style= ""width:200px""alt=""img"">
                                </div>
                            </div>","-81","","0","images/D48.png","","","","[""Random"",""Non-random""]"
"","","","","","html-slider-response","30","55871","0.0-26.0","wc3vdm0vz5","NaN","<div style=""width:500px;"">
                                <p style=""font-size:50px; font-weight:bold;""
                                ></p>
                                <div style=""width:240px; margin: auto;"">
                                    <img src=""images/D65.png"" style= ""width:200px""alt=""img"">
                                </div>
                            </div>","-108","","0","images/D65.png","","","","[""Random"",""Non-random""]"
"","","","","","html-slider-response","31","57215","0.0-27.0","wc3vdm0vz5","NaN","<div style=""width:500px;"">
                                <p style=""font-size:50px; font-weight:bold;""
                                ></p>
                                <div style=""width:240px; margin: auto;"">
                                    <img src=""images/D55.png"" style= ""width:200px""alt=""img"">
                                </div>
                            </div>","-73","","0","images/D55.png","","","","[""Random"",""Non-random""]"
"","","","","","html-slider-response","32","58503","0.0-28.0","wc3vdm0vz5","NaN","<div style=""width:500px;"">
                                <p style=""font-size:50px; font-weight:bold;""
                                ></p>
                                <div style=""width:240px; margin: auto;"">
                                    <img src=""images/D57.png"" style= ""width:200px""alt=""img"">
                                </div>
                            </div>","-117","","0","images/D57.png","","","","[""Random"",""Non-random""]"
"","","","","","html-slider-response","33","59178","0.0-29.0","wc3vdm0vz5","NaN","<div style=""width:500px;"">
                                <p style=""font-size:50px; font-weight:bold;""
                                ></p>
                                <div style=""width:240px; margin: auto;"">
                                    <img src=""images/D78.png"" style= ""width:200px""alt=""img"">
                                </div>
                            </div>","-78","","0","images/D78.png","","","","[""Random"",""Non-random""]"
"","","","","","html-slider-response","34","60443","0.0-30.0","wc3vdm0vz5","NaN","<div style=""width:500px;"">
                                <p style=""font-size:50px; font-weight:bold;""
                                ></p>
                                <div style=""width:240px; margin: auto;"">
                                    <img src=""images/D85.png"" style= ""width:200px""alt=""img"">
                                </div>
                            </div>","-62","","0","images/D85.png","","","","[""Random"",""Non-random""]"
"","","","","","html-slider-response","35","62176","0.0-31.0","wc3vdm0vz5","NaN","<div style=""width:500px;"">
                                <p style=""font-size:50px; font-weight:bold;""
                                ></p>
                                <div style=""width:240px; margin: auto;"">
                                    <img src=""images/D26.png"" style= ""width:200px""alt=""img"">
                                </div>
                            </div>","108","","0","images/D26.png","","","","[""Random"",""Non-random""]"
"","","","","","html-slider-response","36","63059","0.0-32.0","wc3vdm0vz5","NaN","<div style=""width:500px;"">
                                <p style=""font-size:50px; font-weight:bold;""
                                ></p>
                                <div style=""width:240px; margin: auto;"">
                                    <img src=""images/D101.png"" style= ""width:200px""alt=""img"">
                                </div>
                            </div>","-50","","0","images/D101.png","","","","[""Random"",""Non-random""]"
"","","","","","html-slider-response","37","64546","0.0-33.0","wc3vdm0vz5","NaN","<div style=""width:500px;"">
                                <p style=""font-size:50px; font-weight:bold;""
                                ></p>
                                <div style=""width:240px; margin: auto;"">
                                    <img src=""images/D77.png"" style= ""width:200px""alt=""img"">
                                </div>
                            </div>","-89","","0","images/D77.png","","","","[""Random"",""Non-random""]"
"","","","","","html-slider-response","38","65444","0.0-34.0","wc3vdm0vz5","NaN","<div style=""width:500px;"">
                                <p style=""font-size:50px; font-weight:bold;""
                                ></p>
                                <div style=""width:240px; margin: auto;"">
                                    <img src=""images/D87.png"" style= ""width:200px""alt=""img"">
                                </div>
                            </div>","-24","","0","images/D87.png","","","","[""Random"",""Non-random""]"
"","","","","","html-slider-response","39","66223","0.0-35.0","wc3vdm0vz5","NaN","<div style=""width:500px;"">
                                <p style=""font-size:50px; font-weight:bold;""
                                ></p>
                                <div style=""width:240px; margin: auto;"">
                                    <img src=""images/D11.png"" style= ""width:200px""alt=""img"">
                                </div>
                            </div>","-158","","0","images/D11.png","","","","[""Random"",""Non-random""]"
"","","","","","html-slider-response","40","67056","0.0-36.0","wc3vdm0vz5","NaN","<div style=""width:500px;"">
                                <p style=""font-size:50px; font-weight:bold;""
                                ></p>
                                <div style=""width:240px; margin: auto;"">
                                    <img src=""images/D81.png"" style= ""width:200px""alt=""img"">
                                </div>
                            </div>","-175","","0","images/D81.png","","","","[""Random"",""Non-random""]"
"","","","","","html-slider-response","41","67829","0.0-37.0","wc3vdm0vz5","NaN","<div style=""width:500px;"">
                                <p style=""font-size:50px; font-weight:bold;""
                                ></p>
                                <div style=""width:240px; margin: auto;"">
                                    <img src=""images/D49.png"" style= ""width:200px""alt=""img"">
                                </div>
                            </div>","-190","","0","images/D49.png","","","","[""Random"",""Non-random""]"
"","","","","","html-slider-response","42","68687","0.0-38.0","wc3vdm0vz5","NaN","<div style=""width:500px;"">
                                <p style=""font-size:50px; font-weight:bold;""
                                ></p>
                                <div style=""width:240px; margin: auto;"">
                                    <img src=""images/D29.png"" style= ""width:200px""alt=""img"">
                                </div>
                            </div>","-183","","0","images/D29.png","","","","[""Random"",""Non-random""]"
"","","","","","html-slider-response","43","69602","0.0-39.0","wc3vdm0vz5","NaN","<div style=""width:500px;"">
                                <p style=""font-size:50px; font-weight:bold;""
                                ></p>
                                <div style=""width:240px; margin: auto;"">
                                    <img src=""images/D66.png"" style= ""width:200px""alt=""img"">
                                </div>
                            </div>","-182","","0","images/D66.png","","","","[""Random"",""Non-random""]"
"","","","","","html-slider-response","44","70517","0.0-40.0","wc3vdm0vz5","NaN","<div style=""width:500px;"">
                                <p style=""font-size:50px; font-weight:bold;""
                                ></p>
                                <div style=""width:240px; margin: auto;"">
                                    <img src=""images/D34.png"" style= ""width:200px""alt=""img"">
                                </div>
                            </div>","-181","","0","images/D34.png","","","","[""Random"",""Non-random""]"
"","","","","","html-slider-response","45","71312","0.0-41.0","wc3vdm0vz5","NaN","<div style=""width:500px;"">
                                <p style=""font-size:50px; font-weight:bold;""
                                ></p>
                                <div style=""width:240px; margin: auto;"">
                                    <img src=""images/D80.png"" style= ""width:200px""alt=""img"">
                                </div>
                            </div>","-182","","0","images/D80.png","","","","[""Random"",""Non-random""]"
"","","","","","html-slider-response","46","71956","0.0-42.0","wc3vdm0vz5","NaN","<div style=""width:500px;"">
                                <p style=""font-size:50px; font-weight:bold;""
                                ></p>
                                <div style=""width:240px; margin: auto;"">
                                    <img src=""images/D79.png"" style= ""width:200px""alt=""img"">
                                </div>
                            </div>","-180","","0","images/D79.png","","","","[""Random"",""Non-random""]"
"","","","","","html-slider-response","47","72894","0.0-43.0","wc3vdm0vz5","NaN","<div style=""width:500px;"">
                                <p style=""font-size:50px; font-weight:bold;""
                                ></p>
                                <div style=""width:240px; margin: auto;"">
                                    <img src=""images/D35.png"" style= ""width:200px""alt=""img"">
                                </div>
                            </div>","-131","","0","images/D35.png","","","","[""Random"",""Non-random""]"
"","","","","","html-slider-response","48","73737","0.0-44.0","wc3vdm0vz5","NaN","<div style=""width:500px;"">
                                <p style=""font-size:50px; font-weight:bold;""
                                ></p>
                                <div style=""width:240px; margin: auto;"">
                                    <img src=""images/D103.png"" style= ""width:200px""alt=""img"">
                                </div>
                            </div>","-96","","0","images/D103.png","","","","[""Random"",""Non-random""]"
"","","","","","html-slider-response","49","74611","0.0-45.0","wc3vdm0vz5","NaN","<div style=""width:500px;"">
                                <p style=""font-size:50px; font-weight:bold;""
                                ></p>
                                <div style=""width:240px; margin: auto;"">
                                    <img src=""images/D9.png"" style= ""width:200px""alt=""img"">
                                </div>
                            </div>","-60","","0","images/D9.png","","","","[""Random"",""Non-random""]"
"","","","","","html-slider-response","50","75533","0.0-46.0","wc3vdm0vz5","NaN","<div style=""width:500px;"">
                                <p style=""font-size:50px; font-weight:bold;""
                                ></p>
                                <div style=""width:240px; margin: auto;"">
                                    <img src=""images/D64.png"" style= ""width:200px""alt=""img"">
                                </div>
                            </div>","-98","","0","images/D64.png","","","","[""Random"",""Non-random""]"
"","","","","","html-slider-response","51","76241","0.0-47.0","wc3vdm0vz5","NaN","<div style=""width:500px;"">
                                <p style=""font-size:50px; font-weight:bold;""
                                ></p>
                                <div style=""width:240px; margin: auto;"">
                                    <img src=""images/D21.png"" style= ""width:200px""alt=""img"">
                                </div>
                            </div>","-67","","0","images/D21.png","","","","[""Random"",""Non-random""]"
"","","","","","html-slider-response","52","76964","0.0-48.0","wc3vdm0vz5","NaN","<div style=""width:500px;"">
                                <p style=""font-size:50px; font-weight:bold;""
                                ></p>
                                <div style=""width:240px; margin: auto;"">
                                    <img src=""images/D22.png"" style= ""width:200px""alt=""img"">
                                </div>
                            </div>","-83","","0","images/D22.png","","","","[""Random"",""Non-random""]"
"","","","","","html-slider-response","53","77894","0.0-49.0","wc3vdm0vz5","NaN","<div style=""width:500px;"">
                                <p style=""font-size:50px; font-weight:bold;""
                                ></p>
                                <div style=""width:240px; margin: auto;"">
                                    <img src=""images/D83.png"" style= ""width:200px""alt=""img"">
                                </div>
                            </div>","-35","","0","images/D83.png","","","","[""Random"",""Non-random""]"
"","","","","","html-slider-response","54","79191","0.0-50.0","wc3vdm0vz5","NaN","<div style=""width:500px;"">
                                <p style=""font-size:50px; font-weight:bold;""
                                ></p>
                                <div style=""width:240px; margin: auto;"">
                                    <img src=""images/D102.png"" style= ""width:200px""alt=""img"">
                                </div>
                            </div>","-89","","0","images/D102.png","","","","[""Random"",""Non-random""]"
"","","","","","html-slider-response","55","80152","0.0-51.0","wc3vdm0vz5","NaN","<div style=""width:500px;"">
                                <p style=""font-size:50px; font-weight:bold;""
                                ></p>
                                <div style=""width:240px; margin: auto;"">
                                    <img src=""images/D105.png"" style= ""width:200px""alt=""img"">
                                </div>
                            </div>","-109","","0","images/D105.png","","","","[""Random"",""Non-random""]"
"","","","","","html-slider-response","56","80811","0.0-52.0","wc3vdm0vz5","NaN","<div style=""width:500px;"">
                                <p style=""font-size:50px; font-weight:bold;""
                                ></p>
                                <div style=""width:240px; margin: auto;"">
                                    <img src=""images/D4.png"" style= ""width:200px""alt=""img"">
                                </div>
                            </div>","-80","","0","images/D4.png","","","","[""Random"",""Non-random""]"
"","","","","","html-slider-response","57","82092","0.0-53.0","wc3vdm0vz5","NaN","<div style=""width:500px;"">
                                <p style=""font-size:50px; font-weight:bold;""
                                ></p>
                                <div style=""width:240px; margin: auto;"">
                                    <img src=""images/D47.png"" style= ""width:200px""alt=""img"">
                                </div>
                            </div>","-145","","0","images/D47.png","","","","[""Random"",""Non-random""]"
"","","","","","html-slider-response","58","83214","0.0-54.0","wc3vdm0vz5","NaN","<div style=""width:500px;"">
                                <p style=""font-size:50px; font-weight:bold;""
                                ></p>
                                <div style=""width:240px; margin: auto;"">
                                    <img src=""images/D20.png"" style= ""width:200px""alt=""img"">
                                </div>
                            </div>","-95","","0","images/D20.png","","","","[""Random"",""Non-random""]"
"","","","","","html-slider-response","59","85471","0.0-55.0","wc3vdm0vz5","NaN","<div style=""width:500px;"">
                                <p style=""font-size:50px; font-weight:bold;""
                                ></p>
                                <div style=""width:240px; margin: auto;"">
                                    <img src=""images/D1.png"" style= ""width:200px""alt=""img"">
                                </div>
                            </div>","60","","0","images/D1.png","","","","[""Random"",""Non-random""]"
"","","","","","html-slider-response","60","86434","0.0-56.0","wc3vdm0vz5","NaN","<div style=""width:500px;"">
                                <p style=""font-size:50px; font-weight:bold;""
                                ></p>
                                <div style=""width:240px; margin: auto;"">
                                    <img src=""images/D51.png"" style= ""width:200px""alt=""img"">
                                </div>
                            </div>","-41","","0","images/D51.png","","","","[""Random"",""Non-random""]"
"","","","","","html-slider-response","61","87411","0.0-57.0","wc3vdm0vz5","NaN","<div style=""width:500px;"">
                                <p style=""font-size:50px; font-weight:bold;""
                                ></p>
                                <div style=""width:240px; margin: auto;"">
                                    <img src=""images/D46.png"" style= ""width:200px""alt=""img"">
                                </div>
                            </div>","-99","","0","images/D46.png","","","","[""Random"",""Non-random""]"
"","","","","","html-slider-response","62","88223","0.0-58.0","wc3vdm0vz5","NaN","<div style=""width:500px;"">
                                <p style=""font-size:50px; font-weight:bold;""
                                ></p>
                                <div style=""width:240px; margin: auto;"">
                                    <img src=""images/D37.png"" style= ""width:200px""alt=""img"">
                                </div>
                            </div>","-71","","0","images/D37.png","","","","[""Random"",""Non-random""]"
"","","","","","html-slider-response","63","89169","0.0-59.0","wc3vdm0vz5","NaN","<div style=""width:500px;"">
                                <p style=""font-size:50px; font-weight:bold;""
                                ></p>
                                <div style=""width:240px; margin: auto;"">
                                    <img src=""images/D76.png"" style= ""width:200px""alt=""img"">
                                </div>
                            </div>","-111","","0","images/D76.png","","","","[""Random"",""Non-random""]"
"","","","","","html-slider-response","64","89773","0.0-60.0","wc3vdm0vz5","NaN","<div style=""width:500px;"">
                                <p style=""font-size:50px; font-weight:bold;""
                                ></p>
                                <div style=""width:240px; margin: auto;"">
                                    <img src=""images/D106.png"" style= ""width:200px""alt=""img"">
                                </div>
                            </div>","-146","","0","images/D106.png","","","","[""Random"",""Non-random""]"
"","","","","","html-slider-response","65","90687","0.0-61.0","wc3vdm0vz5","NaN","<div style=""width:500px;"">
                                <p style=""font-size:50px; font-weight:bold;""
                                ></p>
                                <div style=""width:240px; margin: auto;"">
                                    <img src=""images/D56.png"" style= ""width:200px""alt=""img"">
                                </div>
                            </div>","-171","","0","images/D56.png","","","","[""Random"",""Non-random""]"
"","","","","","html-slider-response","66","91578","0.0-62.0","wc3vdm0vz5","NaN","<div style=""width:500px;"">
                                <p style=""font-size:50px; font-weight:bold;""
                                ></p>
                                <div style=""width:240px; margin: auto;"">
                                    <img src=""images/D96.png"" style= ""width:200px""alt=""img"">
                                </div>
                            </div>","-171","","0","images/D96.png","","","","[""Random"",""Non-random""]"
"","","","","","html-slider-response","67","92428","0.0-63.0","wc3vdm0vz5","NaN","<div style=""width:500px;"">
                                <p style=""font-size:50px; font-weight:bold;""
                                ></p>
                                <div style=""width:240px; margin: auto;"">
                                    <img src=""images/D95.png"" style= ""width:200px""alt=""img"">
                                </div>
                            </div>","-171","","0","images/D95.png","","","","[""Random"",""Non-random""]"
"","","","","","html-slider-response","68","93295","0.0-64.0","wc3vdm0vz5","NaN","<div style=""width:500px;"">
                                <p style=""font-size:50px; font-weight:bold;""
                                ></p>
                                <div style=""width:240px; margin: auto;"">
                                    <img src=""images/D32.png"" style= ""width:200px""alt=""img"">
                                </div>
                            </div>","-157","","0","images/D32.png","","","","[""Random"",""Non-random""]"
"","","","","","html-slider-response","69","94154","0.0-65.0","wc3vdm0vz5","NaN","<div style=""width:500px;"">
                                <p style=""font-size:50px; font-weight:bold;""
                                ></p>
                                <div style=""width:240px; margin: auto;"">
                                    <img src=""images/D53.png"" style= ""width:200px""alt=""img"">
                                </div>
                            </div>","-129","","0","images/D53.png","","","","[""Random"",""Non-random""]"
"","","","","","html-slider-response","70","95157","0.0-66.0","wc3vdm0vz5","NaN","<div style=""width:500px;"">
                                <p style=""font-size:50px; font-weight:bold;""
                                ></p>
                                <div style=""width:240px; margin: auto;"">
                                    <img src=""images/D19.png"" style= ""width:200px""alt=""img"">
                                </div>
                            </div>","-42","","0","images/D19.png","","","","[""Random"",""Non-random""]"
"","","","","","html-slider-response","71","96237","0.0-67.0","wc3vdm0vz5","NaN","<div style=""width:500px;"">
                                <p style=""font-size:50px; font-weight:bold;""
                                ></p>
                                <div style=""width:240px; margin: auto;"">
                                    <img src=""images/D84.png"" style= ""width:200px""alt=""img"">
                                </div>
                            </div>","-118","","0","images/D84.png","","","","[""Random"",""Non-random""]"
"","","","","","html-slider-response","72","97398","0.0-68.0","wc3vdm0vz5","NaN","<div style=""width:500px;"">
                                <p style=""font-size:50px; font-weight:bold;""
                                ></p>
                                <div style=""width:240px; margin: auto;"">
                                    <img src=""images/D6.png"" style= ""width:200px""alt=""img"">
                                </div>
                            </div>","-56","","0","images/D6.png","","","","[""Random"",""Non-random""]"
"","","","","","html-slider-response","73","98408","0.0-69.0","wc3vdm0vz5","NaN","<div style=""width:500px;"">
                                <p style=""font-size:50px; font-weight:bold;""
                                ></p>
                                <div style=""width:240px; margin: auto;"">
                                    <img src=""images/D36.png"" style= ""width:200px""alt=""img"">
                                </div>
                            </div>","-171","","0","images/D36.png","","","","[""Random"",""Non-random""]"
"","","","","","html-slider-response","74","99489","0.0-70.0","wc3vdm0vz5","NaN","<div style=""width:500px;"">
                                <p style=""font-size:50px; font-weight:bold;""
                                ></p>
                                <div style=""width:240px; margin: auto;"">
                                    <img src=""images/D94.png"" style= ""width:200px""alt=""img"">
                                </div>
                            </div>","-88","","0","images/D94.png","","","","[""Random"",""Non-random""]"
"","","","","","html-slider-response","75","100388","0.0-71.0","wc3vdm0vz5","NaN","<div style=""width:500px;"">
                                <p style=""font-size:50px; font-weight:bold;""
                                ></p>
                                <div style=""width:240px; margin: auto;"">
                                    <img src=""images/D24.png"" style= ""width:200px""alt=""img"">
                                </div>
                            </div>","31","","0","images/D24.png","","","","[""Random"",""Non-random""]"
"","","","","","html-slider-response","76","101596","0.0-72.0","wc3vdm0vz5","NaN","<div style=""width:500px;"">
                                <p style=""font-size:50px; font-weight:bold;""
                                ></p>
                                <div style=""width:240px; margin: auto;"">
                                    <img src=""images/D3.png"" style= ""width:200px""alt=""img"">
                                </div>
                            </div>","-13","","0","images/D3.png","","","","[""Random"",""Non-random""]"
"","","","","","html-slider-response","77","102662","0.0-73.0","wc3vdm0vz5","NaN","<div style=""width:500px;"">
                                <p style=""font-size:50px; font-weight:bold;""
                                ></p>
                                <div style=""width:240px; margin: auto;"">
                                    <img src=""images/D104.png"" style= ""width:200px""alt=""img"">
                                </div>
                            </div>","46","","0","images/D104.png","","","","[""Random"",""Non-random""]"
"","","","","","html-slider-response","78","103299","0.0-74.0","wc3vdm0vz5","NaN","<div style=""width:500px;"">
                                <p style=""font-size:50px; font-weight:bold;""
                                ></p>
                                <div style=""width:240px; margin: auto;"">
                                    <img src=""images/D111.png"" style= ""width:200px""alt=""img"">
                                </div>
                            </div>","-22","","0","images/D111.png","","","","[""Random"",""Non-random""]"
"","","","","","html-slider-response","79","104157","0.0-75.0","wc3vdm0vz5","NaN","<div style=""width:500px;"">
                                <p style=""font-size:50px; font-weight:bold;""
                                ></p>
                                <div style=""width:240px; margin: auto;"">
                                    <img src=""images/D74.png"" style= ""width:200px""alt=""img"">
                                </div>
                            </div>","43","","0","images/D74.png","","","","[""Random"",""Non-random""]"
"","","","","","html-button-response","80","105593","0.0-76.0","wc3vdm0vz5","934","You have completed the first block of trials out of six. Please click 'Continue' when you are ready proceed.","0","","","","","","",""
"","","","","","html-button-response","81","106381","0.0-77.0","wc3vdm0vz5","788","In the following trials, you will be asked to rate textures on the scale <b>Rough</b> versus <b>Smooth</b>. Please click 'Continue' when you are ready proceed.","0","","","","","","",""
"","","","","","html-slider-response","82","109246","0.0-78.0","wc3vdm0vz5","NaN","<div style=""width:500px;"">
                                <p style=""font-size:50px; font-weight:bold;""
                                ></p>
                                <div style=""width:240px; margin: auto;"">
                                    <img src=""images/D85.png"" style= ""width:200px""alt=""img"">
                                </div>
                            </div>","-43","","0","images/D85.png","","","","[""Rough"",""Smooth""]"
"","","","","","html-slider-response","83","111226","0.0-79.0","wc3vdm0vz5","NaN","<div style=""width:500px;"">
                                <p style=""font-size:50px; font-weight:bold;""
                                ></p>
                                <div style=""width:240px; margin: auto;"">
                                    <img src=""images/D18.png"" style= ""width:200px""alt=""img"">
                                </div>
                            </div>","16","","0","images/D18.png","","","","[""Rough"",""Smooth""]"
"","","","","","html-slider-response","84","113134","0.0-80.0","wc3vdm0vz5","NaN","<div style=""width:500px;"">
                                <p style=""font-size:50px; font-weight:bold;""
                                ></p>
                                <div style=""width:240px; margin: auto;"">
                                    <img src=""images/D55.png"" style= ""width:200px""alt=""img"">
                                </div>
                            </div>","22","","0","images/D55.png","","","","[""Rough"",""Smooth""]"
"","","","","","html-slider-response","85","114812","0.0-81.0","wc3vdm0vz5","NaN","<div style=""width:500px;"">
                                <p style=""font-size:50px; font-weight:bold;""
                                ></p>
                                <div style=""width:240px; margin: auto;"">
                                    <img src=""images/D81.png"" style= ""width:200px""alt=""img"">
                                </div>
                            </div>","-14","","0","images/D81.png","","","","[""Rough"",""Smooth""]"
"","","","","","html-slider-response","86","116489","0.0-82.0","wc3vdm0vz5","NaN","<div style=""width:500px;"">
                                <p style=""font-size:50px; font-weight:bold;""
                                ></p>
                                <div style=""width:240px; margin: auto;"">
                                    <img src=""images/D14.png"" style= ""width:200px""alt=""img"">
                                </div>
                            </div>","26","","0","images/D14.png","","","","[""Rough"",""Smooth""]"
"","","","","","html-slider-response","87","118239","0.0-83.0","wc3vdm0vz5","NaN","<div style=""width:500px;"">
                                <p style=""font-size:50px; font-weight:bold;""
                                ></p>
                                <div style=""width:240px; margin: auto;"">
                                    <img src=""images/D66.png"" style= ""width:200px""alt=""img"">
                                </div>
                            </div>","-59","","0","images/D66.png","","","","[""Rough"",""Smooth""]"
"","","","","","html-slider-response","88","120187","0.0-84.0","wc3vdm0vz5","NaN","<div style=""width:500px;"">
                                <p style=""font-size:50px; font-weight:bold;""
                                ></p>
                                <div style=""width:240px; margin: auto;"">
                                    <img src=""images/D47.png"" style= ""width:200px""alt=""img"">
                                </div>
                            </div>","102","","0","images/D47.png","","","","[""Rough"",""Smooth""]"
"","","","","","html-slider-response","89","122230","0.0-85.0","wc3vdm0vz5","NaN","<div style=""width:500px;"">
                                <p style=""font-size:50px; font-weight:bold;""
                                ></p>
                                <div style=""width:240px; margin: auto;"">
                                    <img src=""images/D101.png"" style= ""width:200px""alt=""img"">
                                </div>
                            </div>","57","","0","images/D101.png","","","","[""Rough"",""Smooth""]"
"","","","","","html-slider-response","90","123837","0.0-86.0","wc3vdm0vz5","NaN","<div style=""width:500px;"">
                                <p style=""font-size:50px; font-weight:bold;""
                                ></p>
                                <div style=""width:240px; margin: auto;"">
                                    <img src=""images/D17.png"" style= ""width:200px""alt=""img"">
                                </div>
                            </div>","21","","0","images/D17.png","","","","[""Rough"",""Smooth""]"
"","","","","","html-slider-response","91","125188","0.0-87.0","wc3vdm0vz5","NaN","<div style=""width:500px;"">
                                <p style=""font-size:50px; font-weight:bold;""
                                ></p>
                                <div style=""width:240px; margin: auto;"">
                                    <img src=""images/D51.png"" style= ""width:200px""alt=""img"">
                                </div>
                            </div>","-22","","0","images/D51.png","","","","[""Rough"",""Smooth""]"
"","","","","","html-slider-response","92","126548","0.0-88.0","wc3vdm0vz5","NaN","<div style=""width:500px;"">
                                <p style=""font-size:50px; font-weight:bold;""
                                ></p>
                                <div style=""width:240px; margin: auto;"">
                                    <img src=""images/D102.png"" style= ""width:200px""alt=""img"">
                                </div>
                            </div>","-41","","0","images/D102.png","","","","[""Rough"",""Smooth""]"
"","","","","","html-slider-response","93","127597","0.0-89.0","wc3vdm0vz5","NaN","<div style=""width:500px;"">
                                <p style=""font-size:50px; font-weight:bold;""
                                ></p>
                                <div style=""width:240px; margin: auto;"">
                                    <img src=""images/D21.png"" style= ""width:200px""alt=""img"">
                                </div>
                            </div>","-11","","0","images/D21.png","","","","[""Rough"",""Smooth""]"
"","","","","","html-slider-response","94","128910","0.0-90.0","wc3vdm0vz5","NaN","<div style=""width:500px;"">
                                <p style=""font-size:50px; font-weight:bold;""
                                ></p>
                                <div style=""width:240px; margin: auto;"">
                                    <img src=""images/D35.png"" style= ""width:200px""alt=""img"">
                                </div>
                            </div>","0","","0","images/D35.png","","","","[""Rough"",""Smooth""]"
"","","","","","html-slider-response","95","130920","0.0-91.0","wc3vdm0vz5","NaN","<div style=""width:500px;"">
                                <p style=""font-size:50px; font-weight:bold;""
                                ></p>
                                <div style=""width:240px; margin: auto;"">
                                    <img src=""images/D4.png"" style= ""width:200px""alt=""img"">
                                </div>
                            </div>","-156","","0","images/D4.png","","","","[""Rough"",""Smooth""]"
"","","","","","html-slider-response","96","133013","0.0-92.0","wc3vdm0vz5","NaN","<div style=""width:500px;"">
                                <p style=""font-size:50px; font-weight:bold;""
                                ></p>
                                <div style=""width:240px; margin: auto;"">
                                    <img src=""images/D6.png"" style= ""width:200px""alt=""img"">
                                </div>
                            </div>","-77","","0","images/D6.png","","","","[""Rough"",""Smooth""]"
"","","","","","html-slider-response","97","134674","0.0-93.0","wc3vdm0vz5","NaN","<div style=""width:500px;"">
                                <p style=""font-size:50px; font-weight:bold;""
                                ></p>
                                <div style=""width:240px; margin: auto;"">
                                    <img src=""images/D106.png"" style= ""width:200px""alt=""img"">
                                </div>
                            </div>","3","","0","images/D106.png","","","","[""Rough"",""Smooth""]"
"","","","","","html-slider-response","98","136050","0.0-94.0","wc3vdm0vz5","NaN","<div style=""width:500px;"">
                                <p style=""font-size:50px; font-weight:bold;""
                                ></p>
                                <div style=""width:240px; margin: auto;"">
                                    <img src=""images/D103.png"" style= ""width:200px""alt=""img"">
                                </div>
                            </div>","2","","0","images/D103.png","","","","[""Rough"",""Smooth""]"
"","","","","","html-slider-response","99","137251","0.0-95.0","wc3vdm0vz5","NaN","<div style=""width:500px;"">
                                <p style=""font-size:50px; font-weight:bold;""
                                ></p>
                                <div style=""width:240px; margin: auto;"">
                                    <img src=""images/D53.png"" style= ""width:200px""alt=""img"">
                                </div>
                            </div>","2","","0","images/D53.png","","","","[""Rough"",""Smooth""]"
"","","","","","html-slider-response","100","138411","0.0-96.0","wc3vdm0vz5","NaN","<div style=""width:500px;"">
                                <p style=""font-size:50px; font-weight:bold;""
                                ></p>
                                <div style=""width:240px; margin: auto;"">
                                    <img src=""images/D84.png"" style= ""width:200px""alt=""img"">
                                </div>
                            </div>","32","","0","images/D84.png","","","","[""Rough"",""Smooth""]"
"","","","","","html-slider-response","101","139286","0.0-97.0","wc3vdm0vz5","NaN","<div style=""width:500px;"">
                                <p style=""font-size:50px; font-weight:bold;""
                                ></p>
                                <div style=""width:240px; margin: auto;"">
                                    <img src=""images/D52.png"" style= ""width:200px""alt=""img"">
                                </div>
                            </div>","-34","","0","images/D52.png","","","","[""Rough"",""Smooth""]"
"","","","","","html-slider-response","102","140653","0.0-98.0","wc3vdm0vz5","NaN","<div style=""width:500px;"">
                                <p style=""font-size:50px; font-weight:bold;""
                                ></p>
                                <div style=""width:240px; margin: auto;"">
                                    <img src=""images/D37.png"" style= ""width:200px""alt=""img"">
                                </div>
                            </div>","38","","0","images/D37.png","","","","[""Rough"",""Smooth""]"
"","","","","","html-slider-response","103","142936","0.0-99.0","wc3vdm0vz5","NaN","<div style=""width:500px;"">
                                <p style=""font-size:50px; font-weight:bold;""
                                ></p>
                                <div style=""width:240px; margin: auto;"">
                                    <img src=""images/D94.png"" style= ""width:200px""alt=""img"">
                                </div>
                            </div>","-132","","0","images/D94.png","","","","[""Rough"",""Smooth""]"
"","","","","","html-slider-response","104","144399","0.0-100.0","wc3vdm0vz5","NaN","<div style=""width:500px;"">
                                <p style=""font-size:50px; font-weight:bold;""
                                ></p>
                                <div style=""width:240px; margin: auto;"">
                                    <img src=""images/D24.png"" style= ""width:200px""alt=""img"">
                                </div>
                            </div>","-115","","0","images/D24.png","","","","[""Rough"",""Smooth""]"
"","","","","","html-slider-response","105","146228","0.0-101.0","wc3vdm0vz5","NaN","<div style=""width:500px;"">
                                <p style=""font-size:50px; font-weight:bold;""
                                ></p>
                                <div style=""width:240px; margin: auto;"">
                                    <img src=""images/D16.png"" style= ""width:200px""alt=""img"">
                                </div>
                            </div>","35","","0","images/D16.png","","","","[""Rough"",""Smooth""]"
"","","","","","html-slider-response","106","147571","0.0-102.0","wc3vdm0vz5","NaN","<div style=""width:500px;"">
                                <p style=""font-size:50px; font-weight:bold;""
                                ></p>
                                <div style=""width:240px; margin: auto;"">
                                    <img src=""images/D32.png"" style= ""width:200px""alt=""img"">
                                </div>
                            </div>","-66","","0","images/D32.png","","","","[""Rough"",""Smooth""]"
"","","","","","html-slider-response","107","149034","0.0-103.0","wc3vdm0vz5","NaN","<div style=""width:500px;"">
                                <p style=""font-size:50px; font-weight:bold;""
                                ></p>
                                <div style=""width:240px; margin: auto;"">
                                    <img src=""images/D19.png"" style= ""width:200px""alt=""img"">
                                </div>
                            </div>","34","","0","images/D19.png","","","","[""Rough"",""Smooth""]"
"","","","","","html-slider-response","108","150281","0.0-104.0","wc3vdm0vz5","NaN","<div style=""width:500px;"">
                                <p style=""font-size:50px; font-weight:bold;""
                                ></p>
                                <div style=""width:240px; margin: auto;"">
                                    <img src=""images/D105.png"" style= ""width:200px""alt=""img"">
                                </div>
                            </div>","-14","","0","images/D105.png","","","","[""Rough"",""Smooth""]"
"","","","","","html-slider-response","109","151761","0.0-105.0","wc3vdm0vz5","NaN","<div style=""width:500px;"">
                                <p style=""font-size:50px; font-weight:bold;""
                                ></p>
                                <div style=""width:240px; margin: auto;"">
                                    <img src=""images/D36.png"" style= ""width:200px""alt=""img"">
                                </div>
                            </div>","-34","","0","images/D36.png","","","","[""Rough"",""Smooth""]"
"","","","","","html-slider-response","110","153128","0.0-106.0","wc3vdm0vz5","NaN","<div style=""width:500px;"">
                                <p style=""font-size:50px; font-weight:bold;""
                                ></p>
                                <div style=""width:240px; margin: auto;"">
                                    <img src=""images/D83.png"" style= ""width:200px""alt=""img"">
                                </div>
                            </div>","10","","0","images/D83.png","","","","[""Rough"",""Smooth""]"
"","","","","","html-slider-response","111","154536","0.0-107.0","wc3vdm0vz5","NaN","<div style=""width:500px;"">
                                <p style=""font-size:50px; font-weight:bold;""
                                ></p>
                                <div style=""width:240px; margin: auto;"">
                                    <img src=""images/D76.png"" style= ""width:200px""alt=""img"">
                                </div>
                            </div>","-1","","0","images/D76.png","","","","[""Rough"",""Smooth""]"
"","","","","","html-slider-response","112","155690","0.0-108.0","wc3vdm0vz5","NaN","<div style=""width:500px;"">
                                <p style=""font-size:50px; font-weight:bold;""
                                ></p>
                                <div style=""width:240px; margin: auto;"">
                                    <img src=""images/D49.png"" style= ""width:200px""alt=""img"">
                                </div>
                            </div>","-26","","0","images/D49.png","","","","[""Rough"",""Smooth""]"
"","","","","","html-slider-response","113","156818","0.0-109.0","wc3vdm0vz5","NaN","<div style=""width:500px;"">
                                <p style=""font-size:50px; font-weight:bold;""
                                ></p>
                                <div style=""width:240px; margin: auto;"">
                                    <img src=""images/D104.png"" style= ""width:200px""alt=""img"">
                                </div>
                            </div>","-36","","0","images/D104.png","","","","[""Rough"",""Smooth""]"
"","","","","","html-slider-response","114","158226","0.0-110.0","wc3vdm0vz5","NaN","<div style=""width:500px;"">
                                <p style=""font-size:50px; font-weight:bold;""
                                ></p>
                                <div style=""width:240px; margin: auto;"">
                                    <img src=""images/D48.png"" style= ""width:200px""alt=""img"">
                                </div>
                            </div>","14","","0","images/D48.png","","","","[""Rough"",""Smooth""]"
"","","","","","html-slider-response","115","160086","0.0-111.0","wc3vdm0vz5","NaN","<div style=""width:500px;"">
                                <p style=""font-size:50px; font-weight:bold;""
                                ></p>
                                <div style=""width:240px; margin: auto;"">
                                    <img src=""images/D65.png"" style= ""width:200px""alt=""img"">
                                </div>
                            </div>","-22","","0","images/D65.png","","","","[""Rough"",""Smooth""]"
"","","","","","html-slider-response","116","161741","0.0-112.0","wc3vdm0vz5","NaN","<div style=""width:500px;"">
                                <p style=""font-size:50px; font-weight:bold;""
                                ></p>
                                <div style=""width:240px; margin: auto;"">
                                    <img src=""images/D34.png"" style= ""width:200px""alt=""img"">
                                </div>
                            </div>","40","","0","images/D34.png","","","","[""Rough"",""Smooth""]"
"","","","","","html-slider-response","117","163170","0.0-113.0","wc3vdm0vz5","NaN","<div style=""width:500px;"">
                                <p style=""font-size:50px; font-weight:bold;""
                                ></p>
                                <div style=""width:240px; margin: auto;"">
                                    <img src=""images/D77.png"" style= ""width:200px""alt=""img"">
                                </div>
                            </div>","38","","0","images/D77.png","","","","[""Rough"",""Smooth""]"
"","","","","","html-slider-response","118","164309","0.0-114.0","wc3vdm0vz5","NaN","<div style=""width:500px;"">
                                <p style=""font-size:50px; font-weight:bold;""
                                ></p>
                                <div style=""width:240px; margin: auto;"">
                                    <img src=""images/D22.png"" style= ""width:200px""alt=""img"">
                                </div>
                            </div>","38","","0","images/D22.png","","","","[""Rough"",""Smooth""]"
"","","","","","html-slider-response","119","166105","0.0-115.0","wc3vdm0vz5","NaN","<div style=""width:500px;"">
                                <p style=""font-size:50px; font-weight:bold;""
                                ></p>
                                <div style=""width:240px; margin: auto;"">
                                    <img src=""images/D9.png"" style= ""width:200px""alt=""img"">
                                </div>
                            </div>","-79","","0","images/D9.png","","","","[""Rough"",""Smooth""]"
"","","","","","html-slider-response","120","167305","0.0-116.0","wc3vdm0vz5","NaN","<div style=""width:500px;"">
                                <p style=""font-size:50px; font-weight:bold;""
                                ></p>
                                <div style=""width:240px; margin: auto;"">
                                    <img src=""images/D79.png"" style= ""width:200px""alt=""img"">
                                </div>
                            </div>","18","","0","images/D79.png","","","","[""Rough"",""Smooth""]"
"","","","","","html-slider-response","121","168666","0.0-117.0","wc3vdm0vz5","NaN","<div style=""width:500px;"">
                                <p style=""font-size:50px; font-weight:bold;""
                                ></p>
                                <div style=""width:240px; margin: auto;"">
                                    <img src=""images/D29.png"" style= ""width:200px""alt=""img"">
                                </div>
                            </div>","-37","","0","images/D29.png","","","","[""Rough"",""Smooth""]"
"","","","","","html-slider-response","122","171433","0.0-118.0","wc3vdm0vz5","NaN","<div style=""width:500px;"">
                                <p style=""font-size:50px; font-weight:bold;""
                                ></p>
                                <div style=""width:240px; margin: auto;"">
                                    <img src=""images/D95.png"" style= ""width:200px""alt=""img"">
                                </div>
                            </div>","-162","","0","images/D95.png","","","","[""Rough"",""Smooth""]"
"","","","","","html-slider-response","123","173524","0.0-119.0","wc3vdm0vz5","NaN","<div style=""width:500px;"">
                                <p style=""font-size:50px; font-weight:bold;""
                                ></p>
                                <div style=""width:240px; margin: auto;"">
                                    <img src=""images/D78.png"" style= ""width:200px""alt=""img"">
                                </div>
                            </div>","-20","","0","images/D78.png","","","","[""Rough"",""Smooth""]"
"","","","","","html-slider-response","124","174502","0.0-120.0","wc3vdm0vz5","NaN","<div style=""width:500px;"">
                                <p style=""font-size:50px; font-weight:bold;""
                                ></p>
                                <div style=""width:240px; margin: auto;"">
                                    <img src=""images/D1.png"" style= ""width:200px""alt=""img"">
                                </div>
                            </div>","14","","0","images/D1.png","","","","[""Rough"",""Smooth""]"
"","","","","","html-slider-response","125","175201","0.0-121.0","wc3vdm0vz5","NaN","<div style=""width:500px;"">
                                <p style=""font-size:50px; font-weight:bold;""
                                ></p>
                                <div style=""width:240px; margin: auto;"">
                                    <img src=""images/D56.png"" style= ""width:200px""alt=""img"">
                                </div>
                            </div>","-17","","0","images/D56.png","","","","[""Rough"",""Smooth""]"
"","","","","","html-slider-response","126","176044","0.0-122.0","wc3vdm0vz5","NaN","<div style=""width:500px;"">
                                <p style=""font-size:50px; font-weight:bold;""
                                ></p>
                                <div style=""width:240px; margin: auto;"">
                                    <img src=""images/D3.png"" style= ""width:200px""alt=""img"">
                                </div>
                            </div>","-61","","0","images/D3.png","","","","[""Rough"",""Smooth""]"
"","","","","","html-slider-response","127","176847","0.0-123.0","wc3vdm0vz5","NaN","<div style=""width:500px;"">
                                <p style=""font-size:50px; font-weight:bold;""
                                ></p>
                                <div style=""width:240px; margin: auto;"">
                                    <img src=""images/D25.png"" style= ""width:200px""alt=""img"">
                                </div>
                            </div>","-79","","0","images/D25.png","","","","[""Rough"",""Smooth""]"
"","","","","","html-slider-response","128","177579","0.0-124.0","wc3vdm0vz5","NaN","<div style=""width:500px;"">
                                <p style=""font-size:50px; font-weight:bold;""
                                ></p>
                                <div style=""width:240px; margin: auto;"">
                                    <img src=""images/D57.png"" style= ""width:200px""alt=""img"">
                                </div>
                            </div>","-111","","0","images/D57.png","","","","[""Rough"",""Smooth""]"
"","","","","","html-slider-response","129","178747","0.0-125.0","wc3vdm0vz5","NaN","<div style=""width:500px;"">
                                <p style=""font-size:50px; font-weight:bold;""
                                ></p>
                                <div style=""width:240px; margin: auto;"">
                                    <img src=""images/D11.png"" style= ""width:200px""alt=""img"">
                                </div>
                            </div>","20","","0","images/D11.png","","","","[""Rough"",""Smooth""]"
"","","","","","html-slider-response","130","180163","0.0-126.0","wc3vdm0vz5","NaN","<div style=""width:500px;"">
                                <p style=""font-size:50px; font-weight:bold;""
                                ></p>
                                <div style=""width:240px; margin: auto;"">
                                    <img src=""images/D68.png"" style= ""width:200px""alt=""img"">
                                </div>
                            </div>","-99","","0","images/D68.png","","","","[""Rough"",""Smooth""]"
"","","","","","html-slider-response","131","181284","0.0-127.0","wc3vdm0vz5","NaN","<div style=""width:500px;"">
                                <p style=""font-size:50px; font-weight:bold;""
                                ></p>
                                <div style=""width:240px; margin: auto;"">
                                    <img src=""images/D75.png"" style= ""width:200px""alt=""img"">
                                </div>
                            </div>","0","","0","images/D75.png","","","","[""Rough"",""Smooth""]"
"","","","","","html-slider-response","132","182127","0.0-128.0","wc3vdm0vz5","NaN","<div style=""width:500px;"">
                                <p style=""font-size:50px; font-weight:bold;""
                                ></p>
                                <div style=""width:240px; margin: auto;"">
                                    <img src=""images/D74.png"" style= ""width:200px""alt=""img"">
                                </div>
                            </div>","-38","","0","images/D74.png","","","","[""Rough"",""Smooth""]"
"","","","","","html-slider-response","133","183709","0.0-129.0","wc3vdm0vz5","NaN","<div style=""width:500px;"">
                                <p style=""font-size:50px; font-weight:bold;""
                                ></p>
                                <div style=""width:240px; margin: auto;"">
                                    <img src=""images/D87.png"" style= ""width:200px""alt=""img"">
                                </div>
                            </div>","-52","","0","images/D87.png","","","","[""Rough"",""Smooth""]"
"","","","","","html-slider-response","134","184877","0.0-130.0","wc3vdm0vz5","NaN","<div style=""width:500px;"">
                                <p style=""font-size:50px; font-weight:bold;""
                                ></p>
                                <div style=""width:240px; margin: auto;"">
                                    <img src=""images/D8.png"" style= ""width:200px""alt=""img"">
                                </div>
                            </div>","-162","","0","images/D8.png","","","","[""Rough"",""Smooth""]"
"","","","","","html-slider-response","135","186245","0.0-131.0","wc3vdm0vz5","NaN","<div style=""width:500px;"">
                                <p style=""font-size:50px; font-weight:bold;""
                                ></p>
                                <div style=""width:240px; margin: auto;"">
                                    <img src=""images/D26.png"" style= ""width:200px""alt=""img"">
                                </div>
                            </div>","-68","","0","images/D26.png","","","","[""Rough"",""Smooth""]"
"","","","","","html-slider-response","136","186969","0.0-132.0","wc3vdm0vz5","NaN","<div style=""width:500px;"">
                                <p style=""font-size:50px; font-weight:bold;""
                                ></p>
                                <div style=""width:240px; margin: auto;"">
                                    <img src=""images/D92.png"" style= ""width:200px""alt=""img"">
                                </div>
                            </div>","20","","0","images/D92.png","","","","[""Rough"",""Smooth""]"
"","","","","","html-slider-response","137","188130","0.0-133.0","wc3vdm0vz5","NaN","<div style=""width:500px;"">
                                <p style=""font-size:50px; font-weight:bold;""
                                ></p>
                                <div style=""width:240px; margin: auto;"">
                                    <img src=""images/D96.png"" style= ""width:200px""alt=""img"">
                                </div>
                            </div>","-114","","0","images/D96.png","","","","[""Rough"",""Smooth""]"
"","","","","","html-slider-response","138","189394","0.0-134.0","wc3vdm0vz5","NaN","<div style=""width:500px;"">
                                <p style=""font-size:50px; font-weight:bold;""
                                ></p>
                                <div style=""width:240px; margin: auto;"">
                                    <img src=""images/D20.png"" style= ""width:200px""alt=""img"">
                                </div>
                            </div>","-151","","0","images/D20.png","","","","[""Rough"",""Smooth""]"
"","","","","","html-slider-response","139","191111","0.0-135.0","wc3vdm0vz5","NaN","<div style=""width:500px;"">
                                <p style=""font-size:50px; font-weight:bold;""
                                ></p>
                                <div style=""width:240px; margin: auto;"">
                                    <img src=""images/D111.png"" style= ""width:200px""alt=""img"">
                                </div>
                            </div>","-104","","0","images/D111.png","","","","[""Rough"",""Smooth""]"
"","","","","","html-slider-response","140","192042","0.0-136.0","wc3vdm0vz5","NaN","<div style=""width:500px;"">
                                <p style=""font-size:50px; font-weight:bold;""
                                ></p>
                                <div style=""width:240px; margin: auto;"">
                                    <img src=""images/D82.png"" style= ""width:200px""alt=""img"">
                                </div>
                            </div>","-38","","0","images/D82.png","","","","[""Rough"",""Smooth""]"
"","","","","","html-slider-response","141","192717","0.0-137.0","wc3vdm0vz5","NaN","<div style=""width:500px;"">
                                <p style=""font-size:50px; font-weight:bold;""
                                ></p>
                                <div style=""width:240px; margin: auto;"">
                                    <img src=""images/D46.png"" style= ""width:200px""alt=""img"">
                                </div>
                            </div>","-149","","0","images/D46.png","","","","[""Rough"",""Smooth""]"
"","","","","","html-slider-response","142","194698","0.0-138.0","wc3vdm0vz5","NaN","<div style=""width:500px;"">
                                <p style=""font-size:50px; font-weight:bold;""
                                ></p>
                                <div style=""width:240px; margin: auto;"">
                                    <img src=""images/D64.png"" style= ""width:200px""alt=""img"">
                                </div>
                            </div>","-158","","0","images/D64.png","","","","[""Rough"",""Smooth""]"
"","","","","","html-slider-response","143","195906","0.0-139.0","wc3vdm0vz5","NaN","<div style=""width:500px;"">
                                <p style=""font-size:50px; font-weight:bold;""
                                ></p>
                                <div style=""width:240px; margin: auto;"">
                                    <img src=""images/D80.png"" style= ""width:200px""alt=""img"">
                                </div>
                            </div>","-108","","0","images/D80.png","","","","[""Rough"",""Smooth""]"
"","","","","","html-button-response","144","197263","0.0-140.0","wc3vdm0vz5","855","You have completed the second block of trials out of six. Please click 'Continue' when you are ready proceed.","0","","","","","","",""
"","","","","","html-button-response","145","198057","0.0-141.0","wc3vdm0vz5","793","In the following trials, you will be asked to rate textures on the scale <b>Rounded</b> versus <b>Rectangular</b>. Please click 'Continue' when you are ready proceed.","0","","","","","","",""
"","","","","","html-slider-response","146","199285","0.0-142.0","wc3vdm0vz5","NaN","<div style=""width:500px;"">
                                <p style=""font-size:50px; font-weight:bold;""
                                ></p>
                                <div style=""width:240px; margin: auto;"">
                                    <img src=""images/D85.png"" style= ""width:200px""alt=""img"">
                                </div>
                            </div>","47","","0","images/D85.png","","","","[""Rounded"",""Rectangular""]"
"","","","","","html-slider-response","147","201210","0.0-143.0","wc3vdm0vz5","NaN","<div style=""width:500px;"">
                                <p style=""font-size:50px; font-weight:bold;""
                                ></p>
                                <div style=""width:240px; margin: auto;"">
                                    <img src=""images/D18.png"" style= ""width:200px""alt=""img"">
                                </div>
                            </div>","78","","0","images/D18.png","","","","[""Rounded"",""Rectangular""]"
"","","","","","html-slider-response","148","202290","0.0-144.0","wc3vdm0vz5","NaN","<div style=""width:500px;"">
                                <p style=""font-size:50px; font-weight:bold;""
                                ></p>
                                <div style=""width:240px; margin: auto;"">
                                    <img src=""images/D55.png"" style= ""width:200px""alt=""img"">
                                </div>
                            </div>","101","","0","images/D55.png","","","","[""Rounded"",""Rectangular""]"
"","","","","","html-slider-response","149","203285","0.0-145.0","wc3vdm0vz5","NaN","<div style=""width:500px;"">
                                <p style=""font-size:50px; font-weight:bold;""
                                ></p>
                                <div style=""width:240px; margin: auto;"">
                                    <img src=""images/D81.png"" style= ""width:200px""alt=""img"">
                                </div>
                            </div>","102","","0","images/D81.png","","","","[""Rounded"",""Rectangular""]"
"","","","","","html-slider-response","150","204318","0.0-146.0","wc3vdm0vz5","NaN","<div style=""width:500px;"">
                                <p style=""font-size:50px; font-weight:bold;""
                                ></p>
                                <div style=""width:240px; margin: auto;"">
                                    <img src=""images/D14.png"" style= ""width:200px""alt=""img"">
                                </div>
                            </div>","101","","0","images/D14.png","","","","[""Rounded"",""Rectangular""]"
"","","","","","html-slider-response","151","206624","0.0-147.0","wc3vdm0vz5","NaN","<div style=""width:500px;"">
                                <p style=""font-size:50px; font-weight:bold;""
                                ></p>
                                <div style=""width:240px; margin: auto;"">
                                    <img src=""images/D66.png"" style= ""width:200px""alt=""img"">
                                </div>
                            </div>","-196","","0","images/D66.png","","","","[""Rounded"",""Rectangular""]"
"","","","","","html-slider-response","152","208008","0.0-148.0","wc3vdm0vz5","NaN","<div style=""width:500px;"">
                                <p style=""font-size:50px; font-weight:bold;""
                                ></p>
                                <div style=""width:240px; margin: auto;"">
                                    <img src=""images/D47.png"" style= ""width:200px""alt=""img"">
                                </div>
                            </div>","121","","0","images/D47.png","","","","[""Rounded"",""Rectangular""]"
"","","","","","html-slider-response","153","210424","0.0-149.0","wc3vdm0vz5","NaN","<div style=""width:500px;"">
                                <p style=""font-size:50px; font-weight:bold;""
                                ></p>
                                <div style=""width:240px; margin: auto;"">
                                    <img src=""images/D101.png"" style= ""width:200px""alt=""img"">
                                </div>
                            </div>","2","","0","images/D101.png","","","","[""Rounded"",""Rectangular""]"
"","","","","","html-slider-response","154","211960","0.0-150.0","wc3vdm0vz5","NaN","<div style=""width:500px;"">
                                <p style=""font-size:50px; font-weight:bold;""
                                ></p>
                                <div style=""width:240px; margin: auto;"">
                                    <img src=""images/D17.png"" style= ""width:200px""alt=""img"">
                                </div>
                            </div>","81","","0","images/D17.png","","","","[""Rounded"",""Rectangular""]"
"","","","","","html-slider-response","155","213262","0.0-151.0","wc3vdm0vz5","NaN","<div style=""width:500px;"">
                                <p style=""font-size:50px; font-weight:bold;""
                                ></p>
                                <div style=""width:240px; margin: auto;"">
                                    <img src=""images/D51.png"" style= ""width:200px""alt=""img"">
                                </div>
                            </div>","86","","0","images/D51.png","","","","[""Rounded"",""Rectangular""]"
"","","","","","html-slider-response","156","215140","0.0-152.0","wc3vdm0vz5","NaN","<div style=""width:500px;"">
                                <p style=""font-size:50px; font-weight:bold;""
                                ></p>
                                <div style=""width:240px; margin: auto;"">
                                    <img src=""images/D102.png"" style= ""width:200px""alt=""img"">
                                </div>
                            </div>","3","","0","images/D102.png","","","","[""Rounded"",""Rectangular""]"
"","","","","","html-slider-response","157","217207","0.0-153.0","wc3vdm0vz5","NaN","<div style=""width:500px;"">
                                <p style=""font-size:50px; font-weight:bold;""
                                ></p>
                                <div style=""width:240px; margin: auto;"">
                                    <img src=""images/D21.png"" style= ""width:200px""alt=""img"">
                                </div>
                            </div>","19","","0","images/D21.png","","","","[""Rounded"",""Rectangular""]"
"","","","","","html-slider-response","158","219203","0.0-154.0","wc3vdm0vz5","NaN","<div style=""width:500px;"">
                                <p style=""font-size:50px; font-weight:bold;""
                                ></p>
                                <div style=""width:240px; margin: auto;"">
                                    <img src=""images/D35.png"" style= ""width:200px""alt=""img"">
                                </div>
                            </div>","-15","","0","images/D35.png","","","","[""Rounded"",""Rectangular""]"
"","","","","","html-slider-response","159","220921","0.0-155.0","wc3vdm0vz5","NaN","<div style=""width:500px;"">
                                <p style=""font-size:50px; font-weight:bold;""
                                ></p>
                                <div style=""width:240px; margin: auto;"">
                                    <img src=""images/D4.png"" style= ""width:200px""alt=""img"">
                                </div>
                            </div>","-69","","0","images/D4.png","","","","[""Rounded"",""Rectangular""]"
"","","","","","html-slider-response","160","222192","0.0-156.0","wc3vdm0vz5","NaN","<div style=""width:500px;"">
                                <p style=""font-size:50px; font-weight:bold;""
                                ></p>
                                <div style=""width:240px; margin: auto;"">
                                    <img src=""images/D6.png"" style= ""width:200px""alt=""img"">
                                </div>
                            </div>","58","","0","images/D6.png","","","","[""Rounded"",""Rectangular""]"
"","","","","","html-slider-response","161","223416","0.0-157.0","wc3vdm0vz5","NaN","<div style=""width:500px;"">
                                <p style=""font-size:50px; font-weight:bold;""
                                ></p>
                                <div style=""width:240px; margin: auto;"">
                                    <img src=""images/D106.png"" style= ""width:200px""alt=""img"">
                                </div>
                            </div>","86","","0","images/D106.png","","","","[""Rounded"",""Rectangular""]"
"","","","","","html-slider-response","162","225110","0.0-158.0","wc3vdm0vz5","NaN","<div style=""width:500px;"">
                                <p style=""font-size:50px; font-weight:bold;""
                                ></p>
                                <div style=""width:240px; margin: auto;"">
                                    <img src=""images/D103.png"" style= ""width:200px""alt=""img"">
                                </div>
                            </div>","111","","0","images/D103.png","","","","[""Rounded"",""Rectangular""]"
"","","","","","html-slider-response","163","226184","0.0-159.0","wc3vdm0vz5","NaN","<div style=""width:500px;"">
                                <p style=""font-size:50px; font-weight:bold;""
                                ></p>
                                <div style=""width:240px; margin: auto;"">
                                    <img src=""images/D53.png"" style= ""width:200px""alt=""img"">
                                </div>
                            </div>","118","","0","images/D53.png","","","","[""Rounded"",""Rectangular""]"
"","","","","","html-slider-response","164","228005","0.0-160.0","wc3vdm0vz5","NaN","<div style=""width:500px;"">
                                <p style=""font-size:50px; font-weight:bold;""
                                ></p>
                                <div style=""width:240px; margin: auto;"">
                                    <img src=""images/D84.png"" style= ""width:200px""alt=""img"">
                                </div>
                            </div>","94","","0","images/D84.png","","","","[""Rounded"",""Rectangular""]"
"","","","","","html-slider-response","165","229182","0.0-161.0","wc3vdm0vz5","NaN","<div style=""width:500px;"">
                                <p style=""font-size:50px; font-weight:bold;""
                                ></p>
                                <div style=""width:240px; margin: auto;"">
                                    <img src=""images/D52.png"" style= ""width:200px""alt=""img"">
                                </div>
                            </div>","108","","0","images/D52.png","","","","[""Rounded"",""Rectangular""]"
"","","","","","html-slider-response","166","231050","0.0-162.0","wc3vdm0vz5","NaN","<div style=""width:500px;"">
                                <p style=""font-size:50px; font-weight:bold;""
                                ></p>
                                <div style=""width:240px; margin: auto;"">
                                    <img src=""images/D37.png"" style= ""width:200px""alt=""img"">
                                </div>
                            </div>","-35","","0","images/D37.png","","","","[""Rounded"",""Rectangular""]"
"","","","","","html-slider-response","167","233371","0.0-163.0","wc3vdm0vz5","NaN","<div style=""width:500px;"">
                                <p style=""font-size:50px; font-weight:bold;""
                                ></p>
                                <div style=""width:240px; margin: auto;"">
                                    <img src=""images/D94.png"" style= ""width:200px""alt=""img"">
                                </div>
                            </div>","198","","0","images/D94.png","","","","[""Rounded"",""Rectangular""]"
"","","","","","html-slider-response","168","235000","0.0-164.0","wc3vdm0vz5","NaN","<div style=""width:500px;"">
                                <p style=""font-size:50px; font-weight:bold;""
                                ></p>
                                <div style=""width:240px; margin: auto;"">
                                    <img src=""images/D24.png"" style= ""width:200px""alt=""img"">
                                </div>
                            </div>","52","","0","images/D24.png","","","","[""Rounded"",""Rectangular""]"
"","","","","","html-slider-response","169","236512","0.0-165.0","wc3vdm0vz5","NaN","<div style=""width:500px;"">
                                <p style=""font-size:50px; font-weight:bold;""
                                ></p>
                                <div style=""width:240px; margin: auto;"">
                                    <img src=""images/D16.png"" style= ""width:200px""alt=""img"">
                                </div>
                            </div>","85","","0","images/D16.png","","","","[""Rounded"",""Rectangular""]"
"","","","","","html-slider-response","170","238086","0.0-166.0","wc3vdm0vz5","NaN","<div style=""width:500px;"">
                                <p style=""font-size:50px; font-weight:bold;""
                                ></p>
                                <div style=""width:240px; margin: auto;"">
                                    <img src=""images/D32.png"" style= ""width:200px""alt=""img"">
                                </div>
                            </div>","-63","","0","images/D32.png","","","","[""Rounded"",""Rectangular""]"
"","","","","","html-slider-response","171","238714","0.0-167.0","wc3vdm0vz5","NaN","<div style=""width:500px;"">
                                <p style=""font-size:50px; font-weight:bold;""
                                ></p>
                                <div style=""width:240px; margin: auto;"">
                                    <img src=""images/D19.png"" style= ""width:200px""alt=""img"">
                                </div>
                            </div>","5","","0","images/D19.png","","","","[""Rounded"",""Rectangular""]"
"","","","","","html-slider-response","172","239516","0.0-168.0","wc3vdm0vz5","NaN","<div style=""width:500px;"">
                                <p style=""font-size:50px; font-weight:bold;""
                                ></p>
                                <div style=""width:240px; margin: auto;"">
                                    <img src=""images/D105.png"" style= ""width:200px""alt=""img"">
                                </div>
                            </div>","-32","","0","images/D105.png","","","","[""Rounded"",""Rectangular""]"
"","","","","","html-slider-response","173","240408","0.0-169.0","wc3vdm0vz5","NaN","<div style=""width:500px;"">
                                <p style=""font-size:50px; font-weight:bold;""
                                ></p>
                                <div style=""width:240px; margin: auto;"">
                                    <img src=""images/D36.png"" style= ""width:200px""alt=""img"">
                                </div>
                            </div>","-22","","0","images/D36.png","","","","[""Rounded"",""Rectangular""]"
"","","","","","html-slider-response","174","241632","0.0-170.0","wc3vdm0vz5","NaN","<div style=""width:500px;"">
                                <p style=""font-size:50px; font-weight:bold;""
                                ></p>
                                <div style=""width:240px; margin: auto;"">
                                    <img src=""images/D83.png"" style= ""width:200px""alt=""img"">
                                </div>
                            </div>","-88","","0","images/D83.png","","","","[""Rounded"",""Rectangular""]"
"","","","","","html-slider-response","175","242555","0.0-171.0","wc3vdm0vz5","NaN","<div style=""width:500px;"">
                                <p style=""font-size:50px; font-weight:bold;""
                                ></p>
                                <div style=""width:240px; margin: auto;"">
                                    <img src=""images/D76.png"" style= ""width:200px""alt=""img"">
                                </div>
                            </div>","97","","0","images/D76.png","","","","[""Rounded"",""Rectangular""]"
"","","","","","html-slider-response","176","243500","0.0-172.0","wc3vdm0vz5","NaN","<div style=""width:500px;"">
                                <p style=""font-size:50px; font-weight:bold;""
                                ></p>
                                <div style=""width:240px; margin: auto;"">
                                    <img src=""images/D49.png"" style= ""width:200px""alt=""img"">
                                </div>
                            </div>","-106","","0","images/D49.png","","","","[""Rounded"",""Rectangular""]"
"","","","","","html-slider-response","177","244406","0.0-173.0","wc3vdm0vz5","NaN","<div style=""width:500px;"">
                                <p style=""font-size:50px; font-weight:bold;""
                                ></p>
                                <div style=""width:240px; margin: auto;"">
                                    <img src=""images/D104.png"" style= ""width:200px""alt=""img"">
                                </div>
                            </div>","31","","0","images/D104.png","","","","[""Rounded"",""Rectangular""]"
"","","","","","html-slider-response","178","245242","0.0-174.0","wc3vdm0vz5","NaN","<div style=""width:500px;"">
                                <p style=""font-size:50px; font-weight:bold;""
                                ></p>
                                <div style=""width:240px; margin: auto;"">
                                    <img src=""images/D48.png"" style= ""width:200px""alt=""img"">
                                </div>
                            </div>","31","","0","images/D48.png","","","","[""Rounded"",""Rectangular""]"
"","","","","","html-slider-response","179","245933","0.0-175.0","wc3vdm0vz5","NaN","<div style=""width:500px;"">
                                <p style=""font-size:50px; font-weight:bold;""
                                ></p>
                                <div style=""width:240px; margin: auto;"">
                                    <img src=""images/D65.png"" style= ""width:200px""alt=""img"">
                                </div>
                            </div>","-7","","0","images/D65.png","","","","[""Rounded"",""Rectangular""]"
"","","","","","html-slider-response","180","246943","0.0-176.0","wc3vdm0vz5","NaN","<div style=""width:500px;"">
                                <p style=""font-size:50px; font-weight:bold;""
                                ></p>
                                <div style=""width:240px; margin: auto;"">
                                    <img src=""images/D34.png"" style= ""width:200px""alt=""img"">
                                </div>
                            </div>","54","","0","images/D34.png","","","","[""Rounded"",""Rectangular""]"
"","","","","","html-slider-response","181","247801","0.0-177.0","wc3vdm0vz5","NaN","<div style=""width:500px;"">
                                <p style=""font-size:50px; font-weight:bold;""
                                ></p>
                                <div style=""width:240px; margin: auto;"">
                                    <img src=""images/D77.png"" style= ""width:200px""alt=""img"">
                                </div>
                            </div>","-33","","0","images/D77.png","","","","[""Rounded"",""Rectangular""]"
"","","","","","html-slider-response","182","248486","0.0-178.0","wc3vdm0vz5","NaN","<div style=""width:500px;"">
                                <p style=""font-size:50px; font-weight:bold;""
                                ></p>
                                <div style=""width:240px; margin: auto;"">
                                    <img src=""images/D22.png"" style= ""width:200px""alt=""img"">
                                </div>
                            </div>","26","","0","images/D22.png","","","","[""Rounded"",""Rectangular""]"
"","","","","","html-slider-response","183","249551","0.0-179.0","wc3vdm0vz5","NaN","<div style=""width:500px;"">
                                <p style=""font-size:50px; font-weight:bold;""
                                ></p>
                                <div style=""width:240px; margin: auto;"">
                                    <img src=""images/D9.png"" style= ""width:200px""alt=""img"">
                                </div>
                            </div>","-28","","0","images/D9.png","","","","[""Rounded"",""Rectangular""]"
"","","","","","html-slider-response","184","250798","0.0-180.0","wc3vdm0vz5","NaN","<div style=""width:500px;"">
                                <p style=""font-size:50px; font-weight:bold;""
                                ></p>
                                <div style=""width:240px; margin: auto;"">
                                    <img src=""images/D79.png"" style= ""width:200px""alt=""img"">
                                </div>
                            </div>","38","","0","images/D79.png","","","","[""Rounded"",""Rectangular""]"
"","","","","","html-slider-response","185","252103","0.0-181.0","wc3vdm0vz5","NaN","<div style=""width:500px;"">
                                <p style=""font-size:50px; font-weight:bold;""
                                ></p>
                                <div style=""width:240px; margin: auto;"">
                                    <img src=""images/D29.png"" style= ""width:200px""alt=""img"">
                                </div>
                            </div>","-33","","0","images/D29.png","","","","[""Rounded"",""Rectangular""]"
"","","","","","html-slider-response","186","253724","0.0-182.0","wc3vdm0vz5","NaN","<div style=""width:500px;"">
                                <p style=""font-size:50px; font-weight:bold;""
                                ></p>
                                <div style=""width:240px; margin: auto;"">
