"success","timeout","failed_images","failed_audio","failed_video","trial_type","trial_index","time_elapsed","internal_node_id","subject_id","rt","stimulus","response","question_order","slider_start","image_path","practiceTrial","practiceTrialNum","correct","slider_labels"
"true","false","[]","[]","[]","preload","0","1860","0.0-0.0","wf97zg24a1","","","","","","","","","",""
"","","","","","html-button-response","1","23274","0.0-1.0","wf97zg24a1","21411","<div style='text-align:center; font-size:20px; line-height:25px; width: 1200px;'>
                Welcome to our experiment! <br>
                <br>At the bottom of this screen, you will see a button that says 'Begin Experiment.
                <br>Please only click that button when you are ready to complete the 25 minute experiment in one sitting. <br>
                <br> Once you click that button, it will not be possible to restart the experiment. <br><br>","0","","","","","","",""
"true","","","","","fullscreen","2","26126","0.0-2.0","wf97zg24a1","1849","","","","","","","","",""
"","","","","","survey-multi-select","3","66780","0.0-3.0","wf97zg24a1","40650","","{""Consent"":[""<strong>I consent</strong>""]}","[0]","","","","","",""
"","","","","","html-button-response","4","72177","0.0-4.0","wf97zg24a1","5393","Welcome! <p> This experiment involves two parts: demographic information, followed by the experimental task.<p> It will take about 25 minutes to complete both parts.","0","","","","","","",""
"","","","","","survey-text","5","79928","0.0-5.0","wf97zg24a1","7747","","{""Age"":""18"",""Gender"":""male"",""Race/ethnicity"":""white""}","","","","","","",""
"","","","","","html-slider-response","6","98824","0.0-6.0","wf97zg24a1","18893","
                <div style='text-align:center; height: auto; margin-left=-100px; margin-bottom: -20px; font-size:20px; line-height:5px; width: 1200px;'>
                    <br>During this experiment, you will see a series of textures, one at a time, like the ones below: 
                </div>
                    <br>
                    <br>
                    <img src=""anchoring_visual_textures.png"" alt=""img"" style=""max-width:1200px; margin-left: -10px;"">
                </div>
                <div style=""clear: both;""></div>
                </div>
                    <div style='text-align:center; margin-left=-100px; font-size:20px; line-height:20px; width: 1200px; margin-top: -50px;'>
                    
                    <br> For each texture, you will be asked to rate where you think it falls on each of the response scales with the following endpoints:
                    </div>
                            <div style=""text-align: center; width: 1400px; "">
                                <p style=""font-size:20px; line-height:5px; ""><b>Blobby</b> versus <b>Stripey</b></p>
                                <p style=""font-size:20px; line-height:5px; ""><b>Rounded</b> versus <b>Rectangular</b></p>
                                <p style=""font-size:20px;line-height:5px;""><b>Coarse</b> versus <b>Fine</b></p>
                                <p style=""font-size:20px;line-height:5px; ""><b>Rough</b> versus <b>Smooth</b></p>
                                <p style=""font-size:20px;line-height:5px; ""><b>Random</b> versus <b>Non-Random</b></p>
                                <p style=""font-size:20px;line-height:5px;""><b>Hard</b> versus <b>Soft</b></p>
                            </div>
                            <div style='text-align:center; font-size:20px; line-height:20px; width: 1400px;'>
                    
                    Each trial will include one texture and one response scale. You will be asked to make your rating by sliding the cursor along a slider response scale like the one below.
                    <br><br> Before beginning, please look at the textures and scales. For each scale, think about the texture you associate most with the left endpoint. When you see that texture for that response scale, please click near the left of the scale.
                    <br><br> Now, please think about the texture you associate most with the right endpoint of each scale. When you see that texture for that response scale, please click near the right of the scale. 
                    <br><br> If you think a texture is not strongly associated with either endpoint of the scale, please click near the midpoint of the scale. Please use the full range of the scale. 
                    <br><br> You will be asked to rate each texture for a given scale before moving on to the next scale.
                    <br><br> Please press the 'Continue' button for instructions on how to use the slider.                     <br><br>
                ","null","","0","visual_textures_anchoring.png","true","","",""
"","","","","","html-button-response","7","100924","0.0-7.0","wf97zg24a1","2097","<div style=""width:1200px; margin-top:-150px;""><p style=""text-align:center; font-size:24px;"">To move the slider, click and drag your cursor to the location of the scale where you would like to make your rating and then let go. <br><br> When you let go of the slider, your response will be recorded and the next trial will begin. <br><br><br>
                We are interested in your initial impressions of each texture and scale, so please go with your first intuition. <br><br>
                Before you begin the experiment, there will be four training trials for you to practice using the scale. <br><br><br><br></div>
                <div style=""width:1200px;""><p style=""text-align:center; font-size:20px;"">When you are ready to start the training trials, please click ""Continue"".</p></div>","0","","","","","","",""
"","","","","","html-slider-response","8","105093","0.0-8.0-0.0","wf97zg24a1","NaN","<div style=""width:500px;"">
                                <p style=""font-size:25px;"">Please move the slider all the way to the <br> right endpoint of the scale</p>

                                </div>
                            </div>","200","","0","","true","0","true",""
"","","","","","html-button-response","9","106455","0.0-8.0-1.0","wf97zg24a1","859","<p align='center'><b>Good job!</b> Click on 'Continue' to proceed.</p>","0","","","","","","",""
"","","","","","html-slider-response","10","108129","0.0-9.0-0.0","wf97zg24a1","NaN","<div style=""width:500px;"">
                                <p style=""font-size:25px;"">Please move the slider all the way to the <br> left endpoint of the scale</p>

                                </div>
                            </div>","-200","","0","","true","1","true",""
"","","","","","html-button-response","11","110018","0.0-9.0-1.0","wf97zg24a1","1383","<p align='center'><b>Good job!</b> Click on 'Continue' to proceed.</p>","0","","","","","","",""
"","","","","","html-slider-response","12","113630","0.0-10.0-0.0","wf97zg24a1","NaN","<div style=""width:500px;"">
                                <p style=""font-size:25px;"">Please move the slider halfway between the center and right endpoint of the scale</p>

                                </div>
                            </div>","106","","0","","true","2","true",""
"","","","","","html-button-response","13","114937","0.0-10.0-1.0","wf97zg24a1","805","<p align='center'><b>Good job!</b> Click on 'Continue' to proceed.</p>","0","","","","","","",""
"","","","","","html-slider-response","14","116898","0.0-11.0-0.0","wf97zg24a1","NaN","<div style=""width:500px;"">
                                <p style=""font-size:25px;"">Please move the slider halfway between the center and left endpoint of the scale</p>

                                </div>
                            </div>","-110","","0","","true","3","true",""
"","","","","","html-button-response","15","118465","0.0-11.0-1.0","wf97zg24a1","1063","<p align='center'><b>Good job!</b> Click on 'Continue' to proceed.</p>","0","","","","","","",""
"","","","","","html-button-response","16","119827","0.0-12.0","wf97zg24a1","1361","<div style=""width:800px; margin-top:-300px;""><p style=""text-align:center; font-size:22px; line-height:25px;""""> Great job! You've completed the practice trials.</div>
                     <div style=""width:800px; margin-top:-20px;""><p style=""text-align:center""><br><br> In the following trials, you will be asked to rate textures on each scale one-by-one. <br> You will be given opportunities to take breaks when you have completed each block of trials. There are six total blocks of trials. <br><br> Please click continue to begin the main task.<br><br><br> </div>","0","","","","","","",""
"","","","","","html-button-response","17","122125","0.0-13.0","wf97zg24a1","2296","In the following trials, you will be asked to rate textures on the scale <b>Coarse</b> versus <b>Fine</b>. Please click 'Continue' when you are ready proceed.","0","","","","","","",""
"","","","","","html-slider-response","18","127455","0.0-14.0","wf97zg24a1","NaN","<div style=""width:500px;"">
                                <p style=""font-size:50px; font-weight:bold;""
                                ></p>
                                <div style=""width:240px; margin: auto;"">
                                    <img src=""images/D1.png"" style= ""width:200px""alt=""img"">
                                </div>
                            </div>","-91","","0","images/D1.png","","","","[""Coarse"",""Fine""]"
"","","","","","html-slider-response","19","133375","0.0-15.0","wf97zg24a1","NaN","<div style=""width:500px;"">
                                <p style=""font-size:50px; font-weight:bold;""
                                ></p>
                                <div style=""width:240px; margin: auto;"">
                                    <img src=""images/D57.png"" style= ""width:200px""alt=""img"">
                                </div>
                            </div>","-82","","0","images/D57.png","","","","[""Coarse"",""Fine""]"
"","","","","","html-slider-response","20","136452","0.0-16.0","wf97zg24a1","NaN","<div style=""width:500px;"">
                                <p style=""font-size:50px; font-weight:bold;""
                                ></p>
                                <div style=""width:240px; margin: auto;"">
                                    <img src=""images/D68.png"" style= ""width:200px""alt=""img"">
                                </div>
                            </div>","74","","0","images/D68.png","","","","[""Coarse"",""Fine""]"
"","","","","","html-slider-response","21","140315","0.0-17.0","wf97zg24a1","NaN","<div style=""width:500px;"">
                                <p style=""font-size:50px; font-weight:bold;""
                                ></p>
                                <div style=""width:240px; margin: auto;"">
                                    <img src=""images/D25.png"" style= ""width:200px""alt=""img"">
                                </div>
                            </div>","-77","","0","images/D25.png","","","","[""Coarse"",""Fine""]"
"","","","","","html-slider-response","22","142828","0.0-18.0","wf97zg24a1","NaN","<div style=""width:500px;"">
                                <p style=""font-size:50px; font-weight:bold;""
                                ></p>
                                <div style=""width:240px; margin: auto;"">
                                    <img src=""images/D103.png"" style= ""width:200px""alt=""img"">
                                </div>
                            </div>","80","","0","images/D103.png","","","","[""Coarse"",""Fine""]"
"","","","","","html-slider-response","23","145632","0.0-19.0","wf97zg24a1","NaN","<div style=""width:500px;"">
                                <p style=""font-size:50px; font-weight:bold;""
                                ></p>
                                <div style=""width:240px; margin: auto;"">
                                    <img src=""images/D77.png"" style= ""width:200px""alt=""img"">
                                </div>
                            </div>","61","","0","images/D77.png","","","","[""Coarse"",""Fine""]"
"","","","","","html-slider-response","24","148503","0.0-20.0","wf97zg24a1","NaN","<div style=""width:500px;"">
                                <p style=""font-size:50px; font-weight:bold;""
                                ></p>
                                <div style=""width:240px; margin: auto;"">
                                    <img src=""images/D35.png"" style= ""width:200px""alt=""img"">
                                </div>
                            </div>","129","","0","images/D35.png","","","","[""Coarse"",""Fine""]"
"","","","","","html-slider-response","25","151649","0.0-21.0","wf97zg24a1","NaN","<div style=""width:500px;"">
                                <p style=""font-size:50px; font-weight:bold;""
                                ></p>
                                <div style=""width:240px; margin: auto;"">
                                    <img src=""images/D81.png"" style= ""width:200px""alt=""img"">
                                </div>
                            </div>","-126","","0","images/D81.png","","","","[""Coarse"",""Fine""]"
"","","","","","html-slider-response","26","154248","0.0-22.0","wf97zg24a1","NaN","<div style=""width:500px;"">
                                <p style=""font-size:50px; font-weight:bold;""
                                ></p>
                                <div style=""width:240px; margin: auto;"">
                                    <img src=""images/D78.png"" style= ""width:200px""alt=""img"">
                                </div>
                            </div>","141","","0","images/D78.png","","","","[""Coarse"",""Fine""]"
"","","","","","html-slider-response","27","156579","0.0-23.0","wf97zg24a1","NaN","<div style=""width:500px;"">
                                <p style=""font-size:50px; font-weight:bold;""
                                ></p>
                                <div style=""width:240px; margin: auto;"">
                                    <img src=""images/D80.png"" style= ""width:200px""alt=""img"">
                                </div>
                            </div>","-200","","0","images/D80.png","","","","[""Coarse"",""Fine""]"
"","","","","","html-slider-response","28","159178","0.0-24.0","wf97zg24a1","NaN","<div style=""width:500px;"">
                                <p style=""font-size:50px; font-weight:bold;""
                                ></p>
                                <div style=""width:240px; margin: auto;"">
                                    <img src=""images/D56.png"" style= ""width:200px""alt=""img"">
                                </div>
                            </div>","-102","","0","images/D56.png","","","","[""Coarse"",""Fine""]"
"","","","","","html-slider-response","29","162470","0.0-25.0","wf97zg24a1","NaN","<div style=""width:500px;"">
                                <p style=""font-size:50px; font-weight:bold;""
                                ></p>
                                <div style=""width:240px; margin: auto;"">
                                    <img src=""images/D94.png"" style= ""width:200px""alt=""img"">
                                </div>
                            </div>","-80","","0","images/D94.png","","","","[""Coarse"",""Fine""]"
"","","","","","html-slider-response","30","164907","0.0-26.0","wf97zg24a1","NaN","<div style=""width:500px;"">
                                <p style=""font-size:50px; font-weight:bold;""
                                ></p>
                                <div style=""width:240px; margin: auto;"">
                                    <img src=""images/D75.png"" style= ""width:200px""alt=""img"">
                                </div>
                            </div>","82","","0","images/D75.png","","","","[""Coarse"",""Fine""]"
"","","","","","html-slider-response","31","166799","0.0-27.0","wf97zg24a1","NaN","<div style=""width:500px;"">
                                <p style=""font-size:50px; font-weight:bold;""
                                ></p>
                                <div style=""width:240px; margin: auto;"">
                                    <img src=""images/D92.png"" style= ""width:200px""alt=""img"">
                                </div>
                            </div>","86","","0","images/D92.png","","","","[""Coarse"",""Fine""]"
"","","","","","html-slider-response","32","169377","0.0-28.0","wf97zg24a1","NaN","<div style=""width:500px;"">
                                <p style=""font-size:50px; font-weight:bold;""
                                ></p>
                                <div style=""width:240px; margin: auto;"">
                                    <img src=""images/D64.png"" style= ""width:200px""alt=""img"">
                                </div>
                            </div>","-82","","0","images/D64.png","","","","[""Coarse"",""Fine""]"
"","","","","","html-slider-response","33","171330","0.0-29.0","wf97zg24a1","NaN","<div style=""width:500px;"">
                                <p style=""font-size:50px; font-weight:bold;""
                                ></p>
                                <div style=""width:240px; margin: auto;"">
                                    <img src=""images/D79.png"" style= ""width:200px""alt=""img"">
                                </div>
                            </div>","70","","0","images/D79.png","","","","[""Coarse"",""Fine""]"
"","","","","","html-slider-response","34","173343","0.0-30.0","wf97zg24a1","NaN","<div style=""width:500px;"">
                                <p style=""font-size:50px; font-weight:bold;""
                                ></p>
                                <div style=""width:240px; margin: auto;"">
                                    <img src=""images/D48.png"" style= ""width:200px""alt=""img"">
                                </div>
                            </div>","108","","0","images/D48.png","","","","[""Coarse"",""Fine""]"
"","","","","","html-slider-response","35","176003","0.0-31.0","wf97zg24a1","NaN","<div style=""width:500px;"">
                                <p style=""font-size:50px; font-weight:bold;""
                                ></p>
                                <div style=""width:240px; margin: auto;"">
                                    <img src=""images/D82.png"" style= ""width:200px""alt=""img"">
                                </div>
                            </div>","112","","0","images/D82.png","","","","[""Coarse"",""Fine""]"
"","","","","","html-slider-response","36","177970","0.0-32.0","wf97zg24a1","NaN","<div style=""width:500px;"">
                                <p style=""font-size:50px; font-weight:bold;""
                                ></p>
                                <div style=""width:240px; margin: auto;"">
                                    <img src=""images/D95.png"" style= ""width:200px""alt=""img"">
                                </div>
                            </div>","-117","","0","images/D95.png","","","","[""Coarse"",""Fine""]"
"","","","","","html-slider-response","37","181902","0.0-33.0","wf97zg24a1","NaN","<div style=""width:500px;"">
                                <p style=""font-size:50px; font-weight:bold;""
                                ></p>
                                <div style=""width:240px; margin: auto;"">
                                    <img src=""images/D84.png"" style= ""width:200px""alt=""img"">
                                </div>
                            </div>","-83","","0","images/D84.png","","","","[""Coarse"",""Fine""]"
"","","","","","html-slider-response","38","183764","0.0-34.0","wf97zg24a1","NaN","<div style=""width:500px;"">
                                <p style=""font-size:50px; font-weight:bold;""
                                ></p>
                                <div style=""width:240px; margin: auto;"">
                                    <img src=""images/D96.png"" style= ""width:200px""alt=""img"">
                                </div>
                            </div>","-105","","0","images/D96.png","","","","[""Coarse"",""Fine""]"
"","","","","","html-slider-response","39","186053","0.0-35.0","wf97zg24a1","NaN","<div style=""width:500px;"">
                                <p style=""font-size:50px; font-weight:bold;""
                                ></p>
                                <div style=""width:240px; margin: auto;"">
                                    <img src=""images/D19.png"" style= ""width:200px""alt=""img"">
                                </div>
                            </div>","-110","","0","images/D19.png","","","","[""Coarse"",""Fine""]"
"","","","","","html-slider-response","40","187920","0.0-36.0","wf97zg24a1","NaN","<div style=""width:500px;"">
                                <p style=""font-size:50px; font-weight:bold;""
                                ></p>
                                <div style=""width:240px; margin: auto;"">
                                    <img src=""images/D66.png"" style= ""width:200px""alt=""img"">
                                </div>
                            </div>","78","","0","images/D66.png","","","","[""Coarse"",""Fine""]"
"","","","","","html-slider-response","41","190186","0.0-37.0","wf97zg24a1","NaN","<div style=""width:500px;"">
                                <p style=""font-size:50px; font-weight:bold;""
                                ></p>
                                <div style=""width:240px; margin: auto;"">
                                    <img src=""images/D9.png"" style= ""width:200px""alt=""img"">
                                </div>
                            </div>","83","","0","images/D9.png","","","","[""Coarse"",""Fine""]"
"","","","","","html-slider-response","42","192769","0.0-38.0","wf97zg24a1","NaN","<div style=""width:500px;"">
                                <p style=""font-size:50px; font-weight:bold;""
                                ></p>
                                <div style=""width:240px; margin: auto;"">
                                    <img src=""images/D106.png"" style= ""width:200px""alt=""img"">
                                </div>
                            </div>","58","","0","images/D106.png","","","","[""Coarse"",""Fine""]"
"","","","","","html-slider-response","43","195201","0.0-39.0","wf97zg24a1","NaN","<div style=""width:500px;"">
                                <p style=""font-size:50px; font-weight:bold;""
                                ></p>
                                <div style=""width:240px; margin: auto;"">
                                    <img src=""images/D49.png"" style= ""width:200px""alt=""img"">
                                </div>
                            </div>","45","","0","images/D49.png","","","","[""Coarse"",""Fine""]"
"","","","","","html-slider-response","44","197102","0.0-40.0","wf97zg24a1","NaN","<div style=""width:500px;"">
                                <p style=""font-size:50px; font-weight:bold;""
                                ></p>
                                <div style=""width:240px; margin: auto;"">
                                    <img src=""images/D36.png"" style= ""width:200px""alt=""img"">
                                </div>
                            </div>","101","","0","images/D36.png","","","","[""Coarse"",""Fine""]"
"","","","","","html-slider-response","45","201813","0.0-41.0","wf97zg24a1","NaN","<div style=""width:500px;"">
                                <p style=""font-size:50px; font-weight:bold;""
                                ></p>
                                <div style=""width:240px; margin: auto;"">
                                    <img src=""images/D24.png"" style= ""width:200px""alt=""img"">
                                </div>
                            </div>","74","","0","images/D24.png","","","","[""Coarse"",""Fine""]"
"","","","","","html-slider-response","46","209589","0.0-42.0","wf97zg24a1","NaN","<div style=""width:500px;"">
                                <p style=""font-size:50px; font-weight:bold;""
                                ></p>
                                <div style=""width:240px; margin: auto;"">
                                    <img src=""images/D32.png"" style= ""width:200px""alt=""img"">
                                </div>
                            </div>","-81","","0","images/D32.png","","","","[""Coarse"",""Fine""]"
"","","","","","html-slider-response","47","211480","0.0-43.0","wf97zg24a1","NaN","<div style=""width:500px;"">
                                <p style=""font-size:50px; font-weight:bold;""
                                ></p>
                                <div style=""width:240px; margin: auto;"">
                                    <img src=""images/D11.png"" style= ""width:200px""alt=""img"">
                                </div>
                            </div>","-117","","0","images/D11.png","","","","[""Coarse"",""Fine""]"
"","","","","","html-slider-response","48","213552","0.0-44.0","wf97zg24a1","NaN","<div style=""width:500px;"">
                                <p style=""font-size:50px; font-weight:bold;""
                                ></p>
                                <div style=""width:240px; margin: auto;"">
                                    <img src=""images/D74.png"" style= ""width:200px""alt=""img"">
                                </div>
                            </div>","78","","0","images/D74.png","","","","[""Coarse"",""Fine""]"
"","","","","","html-slider-response","49","217183","0.0-45.0","wf97zg24a1","NaN","<div style=""width:500px;"">
                                <p style=""font-size:50px; font-weight:bold;""
                                ></p>
                                <div style=""width:240px; margin: auto;"">
                                    <img src=""images/D3.png"" style= ""width:200px""alt=""img"">
                                </div>
                            </div>","85","","0","images/D3.png","","","","[""Coarse"",""Fine""]"
"","","","","","html-slider-response","50","219156","0.0-46.0","wf97zg24a1","NaN","<div style=""width:500px;"">
                                <p style=""font-size:50px; font-weight:bold;""
                                ></p>
                                <div style=""width:240px; margin: auto;"">
                                    <img src=""images/D111.png"" style= ""width:200px""alt=""img"">
                                </div>
                            </div>","93","","0","images/D111.png","","","","[""Coarse"",""Fine""]"
"","","","","","html-slider-response","51","221086","0.0-47.0","wf97zg24a1","NaN","<div style=""width:500px;"">
                                <p style=""font-size:50px; font-weight:bold;""
                                ></p>
                                <div style=""width:240px; margin: auto;"">
                                    <img src=""images/D34.png"" style= ""width:200px""alt=""img"">
                                </div>
                            </div>","78","","0","images/D34.png","","","","[""Coarse"",""Fine""]"
"","","","","","html-slider-response","52","222706","0.0-48.0","wf97zg24a1","NaN","<div style=""width:500px;"">
                                <p style=""font-size:50px; font-weight:bold;""
                                ></p>
                                <div style=""width:240px; margin: auto;"">
                                    <img src=""images/D22.png"" style= ""width:200px""alt=""img"">
                                </div>
                            </div>","78","","0","images/D22.png","","","","[""Coarse"",""Fine""]"
"","","","","","html-slider-response","53","224441","0.0-49.0","wf97zg24a1","NaN","<div style=""width:500px;"">
                                <p style=""font-size:50px; font-weight:bold;""
                                ></p>
                                <div style=""width:240px; margin: auto;"">
                                    <img src=""images/D8.png"" style= ""width:200px""alt=""img"">
                                </div>
                            </div>","94","","0","images/D8.png","","","","[""Coarse"",""Fine""]"
"","","","","","html-slider-response","54","226220","0.0-50.0","wf97zg24a1","NaN","<div style=""width:500px;"">
                                <p style=""font-size:50px; font-weight:bold;""
                                ></p>
                                <div style=""width:240px; margin: auto;"">
                                    <img src=""images/D20.png"" style= ""width:200px""alt=""img"">
                                </div>
                            </div>","116","","0","images/D20.png","","","","[""Coarse"",""Fine""]"
"","","","","","html-slider-response","55","227936","0.0-51.0","wf97zg24a1","NaN","<div style=""width:500px;"">
                                <p style=""font-size:50px; font-weight:bold;""
                                ></p>
                                <div style=""width:240px; margin: auto;"">
                                    <img src=""images/D65.png"" style= ""width:200px""alt=""img"">
                                </div>
                            </div>","-73","","0","images/D65.png","","","","[""Coarse"",""Fine""]"
"","","","","","html-slider-response","56","229914","0.0-52.0","wf97zg24a1","NaN","<div style=""width:500px;"">
                                <p style=""font-size:50px; font-weight:bold;""
                                ></p>
                                <div style=""width:240px; margin: auto;"">
                                    <img src=""images/D83.png"" style= ""width:200px""alt=""img"">
                                </div>
                            </div>","57","","0","images/D83.png","","","","[""Coarse"",""Fine""]"
"","","","","","html-slider-response","57","232093","0.0-53.0","wf97zg24a1","NaN","<div style=""width:500px;"">
                                <p style=""font-size:50px; font-weight:bold;""
                                ></p>
                                <div style=""width:240px; margin: auto;"">
                                    <img src=""images/D52.png"" style= ""width:200px""alt=""img"">
                                </div>
                            </div>","24","","0","images/D52.png","","","","[""Coarse"",""Fine""]"
"","","","","","html-slider-response","58","238303","0.0-54.0","wf97zg24a1","NaN","<div style=""width:500px;"">
                                <p style=""font-size:50px; font-weight:bold;""
                                ></p>
                                <div style=""width:240px; margin: auto;"">
                                    <img src=""images/D4.png"" style= ""width:200px""alt=""img"">
                                </div>
                            </div>","50","","0","images/D4.png","","","","[""Coarse"",""Fine""]"
"","","","","","html-slider-response","59","240249","0.0-55.0","wf97zg24a1","NaN","<div style=""width:500px;"">
                                <p style=""font-size:50px; font-weight:bold;""
                                ></p>
                                <div style=""width:240px; margin: auto;"">
                                    <img src=""images/D6.png"" style= ""width:200px""alt=""img"">
                                </div>
                            </div>","44","","0","images/D6.png","","","","[""Coarse"",""Fine""]"
"","","","","","html-slider-response","60","242500","0.0-56.0","wf97zg24a1","NaN","<div style=""width:500px;"">
                                <p style=""font-size:50px; font-weight:bold;""
                                ></p>
                                <div style=""width:240px; margin: auto;"">
                                    <img src=""images/D101.png"" style= ""width:200px""alt=""img"">
                                </div>
                            </div>","58","","0","images/D101.png","","","","[""Coarse"",""Fine""]"
"","","","","","html-slider-response","61","244664","0.0-57.0","wf97zg24a1","NaN","<div style=""width:500px;"">
                                <p style=""font-size:50px; font-weight:bold;""
                                ></p>
                                <div style=""width:240px; margin: auto;"">
                                    <img src=""images/D55.png"" style= ""width:200px""alt=""img"">
                                </div>
                            </div>","-65","","0","images/D55.png","","","","[""Coarse"",""Fine""]"
"","","","","","html-slider-response","62","246664","0.0-58.0","wf97zg24a1","NaN","<div style=""width:500px;"">
                                <p style=""font-size:50px; font-weight:bold;""
                                ></p>
                                <div style=""width:240px; margin: auto;"">
                                    <img src=""images/D14.png"" style= ""width:200px""alt=""img"">
                                </div>
                            </div>","-63","","0","images/D14.png","","","","[""Coarse"",""Fine""]"
"","","","","","html-slider-response","63","248866","0.0-59.0","wf97zg24a1","NaN","<div style=""width:500px;"">
                                <p style=""font-size:50px; font-weight:bold;""
                                ></p>
                                <div style=""width:240px; margin: auto;"">
                                    <img src=""images/D85.png"" style= ""width:200px""alt=""img"">
                                </div>
                            </div>","-75","","0","images/D85.png","","","","[""Coarse"",""Fine""]"
"","","","","","html-slider-response","64","250711","0.0-60.0","wf97zg24a1","NaN","<div style=""width:500px;"">
                                <p style=""font-size:50px; font-weight:bold;""
                                ></p>
                                <div style=""width:240px; margin: auto;"">
                                    <img src=""images/D76.png"" style= ""width:200px""alt=""img"">
                                </div>
                            </div>","56","","0","images/D76.png","","","","[""Coarse"",""Fine""]"
"","","","","","html-slider-response","65","252521","0.0-61.0","wf97zg24a1","NaN","<div style=""width:500px;"">
                                <p style=""font-size:50px; font-weight:bold;""
                                ></p>
                                <div style=""width:240px; margin: auto;"">
                                    <img src=""images/D46.png"" style= ""width:200px""alt=""img"">
                                </div>
                            </div>","56","","0","images/D46.png","","","","[""Coarse"",""Fine""]"
"","","","","","html-slider-response","66","254914","0.0-62.0","wf97zg24a1","NaN","<div style=""width:500px;"">
                                <p style=""font-size:50px; font-weight:bold;""
                                ></p>
                                <div style=""width:240px; margin: auto;"">
                                    <img src=""images/D37.png"" style= ""width:200px""alt=""img"">
                                </div>
                            </div>","51","","0","images/D37.png","","","","[""Coarse"",""Fine""]"
"","","","","","html-slider-response","67","257737","0.0-63.0","wf97zg24a1","NaN","<div style=""width:500px;"">
                                <p style=""font-size:50px; font-weight:bold;""
                                ></p>
                                <div style=""width:240px; margin: auto;"">
                                    <img src=""images/D51.png"" style= ""width:200px""alt=""img"">
                                </div>
                            </div>","131","","0","images/D51.png","","","","[""Coarse"",""Fine""]"
"","","","","","html-slider-response","68","259602","0.0-64.0","wf97zg24a1","NaN","<div style=""width:500px;"">
                                <p style=""font-size:50px; font-weight:bold;""
                                ></p>
                                <div style=""width:240px; margin: auto;"">
                                    <img src=""images/D102.png"" style= ""width:200px""alt=""img"">
                                </div>
                            </div>","42","","0","images/D102.png","","","","[""Coarse"",""Fine""]"
"","","","","","html-slider-response","69","264102","0.0-65.0","wf97zg24a1","NaN","<div style=""width:500px;"">
                                <p style=""font-size:50px; font-weight:bold;""
                                ></p>
                                <div style=""width:240px; margin: auto;"">
                                    <img src=""images/D53.png"" style= ""width:200px""alt=""img"">
                                </div>
                            </div>","39","","0","images/D53.png","","","","[""Coarse"",""Fine""]"
"","","","","","html-slider-response","70","266162","0.0-66.0","wf97zg24a1","NaN","<div style=""width:500px;"">
                                <p style=""font-size:50px; font-weight:bold;""
                                ></p>
                                <div style=""width:240px; margin: auto;"">
                                    <img src=""images/D18.png"" style= ""width:200px""alt=""img"">
                                </div>
                            </div>","47","","0","images/D18.png","","","","[""Coarse"",""Fine""]"
"","","","","","html-slider-response","71","268140","0.0-67.0","wf97zg24a1","NaN","<div style=""width:500px;"">
                                <p style=""font-size:50px; font-weight:bold;""
                                ></p>
                                <div style=""width:240px; margin: auto;"">
                                    <img src=""images/D21.png"" style= ""width:200px""alt=""img"">
                                </div>
                            </div>","113","","0","images/D21.png","","","","[""Coarse"",""Fine""]"
"","","","","","html-slider-response","72","270079","0.0-68.0","wf97zg24a1","NaN","<div style=""width:500px;"">
                                <p style=""font-size:50px; font-weight:bold;""
                                ></p>
                                <div style=""width:240px; margin: auto;"">
                                    <img src=""images/D47.png"" style= ""width:200px""alt=""img"">
                                </div>
                            </div>","83","","0","images/D47.png","","","","[""Coarse"",""Fine""]"
"","","","","","html-slider-response","73","272264","0.0-69.0","wf97zg24a1","NaN","<div style=""width:500px;"">
                                <p style=""font-size:50px; font-weight:bold;""
                                ></p>
                                <div style=""width:240px; margin: auto;"">
                                    <img src=""images/D16.png"" style= ""width:200px""alt=""img"">
                                </div>
                            </div>","98","","0","images/D16.png","","","","[""Coarse"",""Fine""]"
"","","","","","html-slider-response","74","274458","0.0-70.0","wf97zg24a1","NaN","<div style=""width:500px;"">
                                <p style=""font-size:50px; font-weight:bold;""
                                ></p>
                                <div style=""width:240px; margin: auto;"">
                                    <img src=""images/D17.png"" style= ""width:200px""alt=""img"">
                                </div>
                            </div>","-70","","0","images/D17.png","","","","[""Coarse"",""Fine""]"
"","","","","","html-slider-response","75","276372","0.0-71.0","wf97zg24a1","NaN","<div style=""width:500px;"">
                                <p style=""font-size:50px; font-weight:bold;""
                                ></p>
                                <div style=""width:240px; margin: auto;"">
                                    <img src=""images/D105.png"" style= ""width:200px""alt=""img"">
                                </div>
                            </div>","84","","0","images/D105.png","","","","[""Coarse"",""Fine""]"
"","","","","","html-slider-response","76","278018","0.0-72.0","wf97zg24a1","NaN","<div style=""width:500px;"">
                                <p style=""font-size:50px; font-weight:bold;""
                                ></p>
                                <div style=""width:240px; margin: auto;"">
                                    <img src=""images/D29.png"" style= ""width:200px""alt=""img"">
                                </div>
                            </div>","-75","","0","images/D29.png","","","","[""Coarse"",""Fine""]"
"","","","","","html-slider-response","77","279697","0.0-73.0","wf97zg24a1","NaN","<div style=""width:500px;"">
                                <p style=""font-size:50px; font-weight:bold;""
                                ></p>
                                <div style=""width:240px; margin: auto;"">
                                    <img src=""images/D104.png"" style= ""width:200px""alt=""img"">
                                </div>
                            </div>","56","","0","images/D104.png","","","","[""Coarse"",""Fine""]"
"","","","","","html-slider-response","78","282151","0.0-74.0","wf97zg24a1","NaN","<div style=""width:500px;"">
                                <p style=""font-size:50px; font-weight:bold;""
                                ></p>
                                <div style=""width:240px; margin: auto;"">
                                    <img src=""images/D26.png"" style= ""width:200px""alt=""img"">
                                </div>
                            </div>","-200","","0","images/D26.png","","","","[""Coarse"",""Fine""]"
"","","","","","html-slider-response","79","283779","0.0-75.0","wf97zg24a1","NaN","<div style=""width:500px;"">
                                <p style=""font-size:50px; font-weight:bold;""
                                ></p>
                                <div style=""width:240px; margin: auto;"">
                                    <img src=""images/D87.png"" style= ""width:200px""alt=""img"">
                                </div>
                            </div>","90","","0","images/D87.png","","","","[""Coarse"",""Fine""]"
"","","","","","html-button-response","80","288079","0.0-76.0","wf97zg24a1","3796","You have completed the first block of trials out of six. Please click 'Continue' when you are ready proceed.","0","","","","","","",""
"","","","","","html-button-response","81","289804","0.0-77.0","wf97zg24a1","1724","In the following trials, you will be asked to rate textures on the scale <b>Hard</b> versus <b>Soft</b>. Please click 'Continue' when you are ready proceed.","0","","","","","","",""
"","","","","","html-slider-response","82","291649","0.0-78.0","wf97zg24a1","NaN","<div style=""width:500px;"">
                                <p style=""font-size:50px; font-weight:bold;""
                                ></p>
                                <div style=""width:240px; margin: auto;"">
                                    <img src=""images/D21.png"" style= ""width:200px""alt=""img"">
                                </div>
                            </div>","-126","","0","images/D21.png","","","","[""Hard"",""Soft""]"
"","","","","","html-slider-response","83","293423","0.0-79.0","wf97zg24a1","NaN","<div style=""width:500px;"">
                                <p style=""font-size:50px; font-weight:bold;""
                                ></p>
                                <div style=""width:240px; margin: auto;"">
                                    <img src=""images/D103.png"" style= ""width:200px""alt=""img"">
                                </div>
                            </div>","-121","","0","images/D103.png","","","","[""Hard"",""Soft""]"
"","","","","","html-slider-response","84","295139","0.0-80.0","wf97zg24a1","NaN","<div style=""width:500px;"">
                                <p style=""font-size:50px; font-weight:bold;""
                                ></p>
                                <div style=""width:240px; margin: auto;"">
                                    <img src=""images/D79.png"" style= ""width:200px""alt=""img"">
                                </div>
                            </div>","-110","","0","images/D79.png","","","","[""Hard"",""Soft""]"
"","","","","","html-slider-response","85","296927","0.0-81.0","wf97zg24a1","NaN","<div style=""width:500px;"">
                                <p style=""font-size:50px; font-weight:bold;""
                                ></p>
                                <div style=""width:240px; margin: auto;"">
                                    <img src=""images/D57.png"" style= ""width:200px""alt=""img"">
                                </div>
                            </div>","-87","","0","images/D57.png","","","","[""Hard"",""Soft""]"
"","","","","","html-slider-response","86","298453","0.0-82.0","wf97zg24a1","NaN","<div style=""width:500px;"">
                                <p style=""font-size:50px; font-weight:bold;""
                                ></p>
                                <div style=""width:240px; margin: auto;"">
                                    <img src=""images/D9.png"" style= ""width:200px""alt=""img"">
                                </div>
                            </div>","44","","0","images/D9.png","","","","[""Hard"",""Soft""]"
"","","","","","html-slider-response","87","299835","0.0-83.0","wf97zg24a1","NaN","<div style=""width:500px;"">
                                <p style=""font-size:50px; font-weight:bold;""
                                ></p>
                                <div style=""width:240px; margin: auto;"">
                                    <img src=""images/D1.png"" style= ""width:200px""alt=""img"">
                                </div>
                            </div>","-138","","0","images/D1.png","","","","[""Hard"",""Soft""]"
"","","","","","html-slider-response","88","301331","0.0-84.0","wf97zg24a1","NaN","<div style=""width:500px;"">
                                <p style=""font-size:50px; font-weight:bold;""
                                ></p>
                                <div style=""width:240px; margin: auto;"">
                                    <img src=""images/D55.png"" style= ""width:200px""alt=""img"">
                                </div>
                            </div>","-127","","0","images/D55.png","","","","[""Hard"",""Soft""]"
"","","","","","html-slider-response","89","302824","0.0-85.0","wf97zg24a1","NaN","<div style=""width:500px;"">
                                <p style=""font-size:50px; font-weight:bold;""
                                ></p>
                                <div style=""width:240px; margin: auto;"">
                                    <img src=""images/D68.png"" style= ""width:200px""alt=""img"">
                                </div>
                            </div>","-146","","0","images/D68.png","","","","[""Hard"",""Soft""]"
"","","","","","html-slider-response","90","304604","0.0-86.0","wf97zg24a1","NaN","<div style=""width:500px;"">
                                <p style=""font-size:50px; font-weight:bold;""
                                ></p>
                                <div style=""width:240px; margin: auto;"">
                                    <img src=""images/D77.png"" style= ""width:200px""alt=""img"">
                                </div>
                            </div>","54","","0","images/D77.png","","","","[""Hard"",""Soft""]"
"","","","","","html-slider-response","91","311681","0.0-87.0","wf97zg24a1","NaN","<div style=""width:500px;"">
                                <p style=""font-size:50px; font-weight:bold;""
                                ></p>
                                <div style=""width:240px; margin: auto;"">
                                    <img src=""images/D81.png"" style= ""width:200px""alt=""img"">
                                </div>
                            </div>","-52","","0","images/D81.png","","","","[""Hard"",""Soft""]"
"","","","","","html-slider-response","92","313181","0.0-88.0","wf97zg24a1","NaN","<div style=""width:500px;"">
                                <p style=""font-size:50px; font-weight:bold;""
                                ></p>
                                <div style=""width:240px; margin: auto;"">
                                    <img src=""images/D84.png"" style= ""width:200px""alt=""img"">
                                </div>
                            </div>","-78","","0","images/D84.png","","","","[""Hard"",""Soft""]"
"","","","","","html-slider-response","93","314780","0.0-89.0","wf97zg24a1","NaN","<div style=""width:500px;"">
                                <p style=""font-size:50px; font-weight:bold;""
                                ></p>
                                <div style=""width:240px; margin: auto;"">
                                    <img src=""images/D111.png"" style= ""width:200px""alt=""img"">
                                </div>
                            </div>","43","","0","images/D111.png","","","","[""Hard"",""Soft""]"
"","","","","","html-slider-response","94","316445","0.0-90.0","wf97zg24a1","NaN","<div style=""width:500px;"">
                                <p style=""font-size:50px; font-weight:bold;""
                                ></p>
                                <div style=""width:240px; margin: auto;"">
                                    <img src=""images/D29.png"" style= ""width:200px""alt=""img"">
                                </div>
                            </div>","-124","","0","images/D29.png","","","","[""Hard"",""Soft""]"
"","","","","","html-slider-response","95","318003","0.0-91.0","wf97zg24a1","NaN","<div style=""width:500px;"">
                                <p style=""font-size:50px; font-weight:bold;""
                                ></p>
                                <div style=""width:240px; margin: auto;"">
                                    <img src=""images/D74.png"" style= ""width:200px""alt=""img"">
                                </div>
                            </div>","89","","0","images/D74.png","","","","[""Hard"",""Soft""]"
"","","","","","html-slider-response","96","319636","0.0-92.0","wf97zg24a1","NaN","<div style=""width:500px;"">
                                <p style=""font-size:50px; font-weight:bold;""
                                ></p>
                                <div style=""width:240px; margin: auto;"">
                                    <img src=""images/D96.png"" style= ""width:200px""alt=""img"">
                                </div>
                            </div>","-94","","0","images/D96.png","","","","[""Hard"",""Soft""]"
"","","","","","html-slider-response","97","321050","0.0-93.0","wf97zg24a1","NaN","<div style=""width:500px;"">
                                <p style=""font-size:50px; font-weight:bold;""
                                ></p>
                                <div style=""width:240px; margin: auto;"">
                                    <img src=""images/D26.png"" style= ""width:200px""alt=""img"">
                                </div>
                            </div>","-131","","0","images/D26.png","","","","[""Hard"",""Soft""]"
"","","","","","html-slider-response","98","322615","0.0-94.0","wf97zg24a1","NaN","<div style=""width:500px;"">
                                <p style=""font-size:50px; font-weight:bold;""
                                ></p>
                                <div style=""width:240px; margin: auto;"">
                                    <img src=""images/D80.png"" style= ""width:200px""alt=""img"">
                                </div>
                            </div>","-119","","0","images/D80.png","","","","[""Hard"",""Soft""]"
"","","","","","html-slider-response","99","324162","0.0-95.0","wf97zg24a1","NaN","<div style=""width:500px;"">
                                <p style=""font-size:50px; font-weight:bold;""
                                ></p>
                                <div style=""width:240px; margin: auto;"">
                                    <img src=""images/D75.png"" style= ""width:200px""alt=""img"">
                                </div>
                            </div>","185","","0","images/D75.png","","","","[""Hard"",""Soft""]"
"","","","","","html-slider-response","100","325813","0.0-96.0","wf97zg24a1","NaN","<div style=""width:500px;"">
                                <p style=""font-size:50px; font-weight:bold;""
                                ></p>
                                <div style=""width:240px; margin: auto;"">
                                    <img src=""images/D78.png"" style= ""width:200px""alt=""img"">
                                </div>
                            </div>","-78","","0","images/D78.png","","","","[""Hard"",""Soft""]"
"","","","","","html-slider-response","101","327232","0.0-97.0","wf97zg24a1","NaN","<div style=""width:500px;"">
                                <p style=""font-size:50px; font-weight:bold;""
                                ></p>
                                <div style=""width:240px; margin: auto;"">
                                    <img src=""images/D6.png"" style= ""width:200px""alt=""img"">
                                </div>
                            </div>","-91","","0","images/D6.png","","","","[""Hard"",""Soft""]"
"","","","","","html-slider-response","102","328728","0.0-98.0","wf97zg24a1","NaN","<div style=""width:500px;"">
                                <p style=""font-size:50px; font-weight:bold;""
                                ></p>
                                <div style=""width:240px; margin: auto;"">
                                    <img src=""images/D65.png"" style= ""width:200px""alt=""img"">
                                </div>
                            </div>","-97","","0","images/D65.png","","","","[""Hard"",""Soft""]"
"","","","","","html-slider-response","103","330157","0.0-99.0","wf97zg24a1","NaN","<div style=""width:500px;"">
                                <p style=""font-size:50px; font-weight:bold;""
                                ></p>
                                <div style=""width:240px; margin: auto;"">
                                    <img src=""images/D36.png"" style= ""width:200px""alt=""img"">
                                </div>
                            </div>","8","","0","images/D36.png","","","","[""Hard"",""Soft""]"
"","","","","","html-slider-response","104","331857","0.0-100.0","wf97zg24a1","NaN","<div style=""width:500px;"">
                                <p style=""font-size:50px; font-weight:bold;""
                                ></p>
                                <div style=""width:240px; margin: auto;"">
                                    <img src=""images/D47.png"" style= ""width:200px""alt=""img"">
                                </div>
                            </div>","38","","0","images/D47.png","","","","[""Hard"",""Soft""]"
"","","","","","html-slider-response","105","333829","0.0-101.0","wf97zg24a1","NaN","<div style=""width:500px;"">
                                <p style=""font-size:50px; font-weight:bold;""
                                ></p>
                                <div style=""width:240px; margin: auto;"">
                                    <img src=""images/D76.png"" style= ""width:200px""alt=""img"">
                                </div>
                            </div>","-125","","0","images/D76.png","","","","[""Hard"",""Soft""]"
"","","","","","html-slider-response","106","335401","0.0-102.0","wf97zg24a1","NaN","<div style=""width:500px;"">
                                <p style=""font-size:50px; font-weight:bold;""
                                ></p>
                                <div style=""width:240px; margin: auto;"">
                                    <img src=""images/D87.png"" style= ""width:200px""alt=""img"">
                                </div>
                            </div>","93","","0","images/D87.png","","","","[""Hard"",""Soft""]"
"","","","","","html-slider-response","107","336984","0.0-103.0","wf97zg24a1","NaN","<div style=""width:500px;"">
                                <p style=""font-size:50px; font-weight:bold;""
                                ></p>
                                <div style=""width:240px; margin: auto;"">
                                    <img src=""images/D20.png"" style= ""width:200px""alt=""img"">
                                </div>
                            </div>","-79","","0","images/D20.png","","","","[""Hard"",""Soft""]"
"","","","","","html-slider-response","108","338592","0.0-104.0","wf97zg24a1","NaN","<div style=""width:500px;"">
                                <p style=""font-size:50px; font-weight:bold;""
                                ></p>
                                <div style=""width:240px; margin: auto;"">
                                    <img src=""images/D56.png"" style= ""width:200px""alt=""img"">
                                </div>
                            </div>","-82","","0","images/D56.png","","","","[""Hard"",""Soft""]"
"","","","","","html-slider-response","109","339913","0.0-105.0","wf97zg24a1","NaN","<div style=""width:500px;"">
                                <p style=""font-size:50px; font-weight:bold;""
                                ></p>
                                <div style=""width:240px; margin: auto;"">
                                    <img src=""images/D11.png"" style= ""width:200px""alt=""img"">
                                </div>
                            </div>","-122","","0","images/D11.png","","","","[""Hard"",""Soft""]"
"","","","","","html-slider-response","110","341500","0.0-106.0","wf97zg24a1","NaN","<div style=""width:500px;"">
                                <p style=""font-size:50px; font-weight:bold;""
                                ></p>
                                <div style=""width:240px; margin: auto;"">
                                    <img src=""images/D32.png"" style= ""width:200px""alt=""img"">
                                </div>
                            </div>","-148","","0","images/D32.png","","","","[""Hard"",""Soft""]"
"","","","","","html-slider-response","111","343105","0.0-107.0","wf97zg24a1","NaN","<div style=""width:500px;"">
                                <p style=""font-size:50px; font-weight:bold;""
                                ></p>
                                <div style=""width:240px; margin: auto;"">
                                    <img src=""images/D24.png"" style= ""width:200px""alt=""img"">
                                </div>
                            </div>","-79","","0","images/D24.png","","","","[""Hard"",""Soft""]"
"","","","","","html-slider-response","112","344719","0.0-108.0","wf97zg24a1","NaN","<div style=""width:500px;"">
                                <p style=""font-size:50px; font-weight:bold;""
                                ></p>
                                <div style=""width:240px; margin: auto;"">
                                    <img src=""images/D8.png"" style= ""width:200px""alt=""img"">
                                </div>
                            </div>","104","","0","images/D8.png","","","","[""Hard"",""Soft""]"
"","","","","","html-slider-response","113","346101","0.0-109.0","wf97zg24a1","NaN","<div style=""width:500px;"">
                                <p style=""font-size:50px; font-weight:bold;""
                                ></p>
                                <div style=""width:240px; margin: auto;"">
                                    <img src=""images/D49.png"" style= ""width:200px""alt=""img"">
                                </div>
                            </div>","-70","","0","images/D49.png","","","","[""Hard"",""Soft""]"
"","","","","","html-slider-response","114","347688","0.0-110.0","wf97zg24a1","NaN","<div style=""width:500px;"">
                                <p style=""font-size:50px; font-weight:bold;""
                                ></p>
                                <div style=""width:240px; margin: auto;"">
                                    <img src=""images/D95.png"" style= ""width:200px""alt=""img"">
                                </div>
                            </div>","-149","","0","images/D95.png","","","","[""Hard"",""Soft""]"
"","","","","","html-slider-response","115","349775","0.0-111.0","wf97zg24a1","NaN","<div style=""width:500px;"">
                                <p style=""font-size:50px; font-weight:bold;""
                                ></p>
                                <div style=""width:240px; margin: auto;"">
                                    <img src=""images/D48.png"" style= ""width:200px""alt=""img"">
                                </div>
                            </div>","72","","0","images/D48.png","","","","[""Hard"",""Soft""]"
"","","","","","html-slider-response","116","351188","0.0-112.0","wf97zg24a1","NaN","<div style=""width:500px;"">
                                <p style=""font-size:50px; font-weight:bold;""
                                ></p>
                                <div style=""width:240px; margin: auto;"">
                                    <img src=""images/D85.png"" style= ""width:200px""alt=""img"">
                                </div>
                            </div>","-84","","0","images/D85.png","","","","[""Hard"",""Soft""]"
"","","","","","html-slider-response","117","352964","0.0-113.0","wf97zg24a1","NaN","<div style=""width:500px;"">
                                <p style=""font-size:50px; font-weight:bold;""
                                ></p>
                                <div style=""width:240px; margin: auto;"">
                                    <img src=""images/D34.png"" style= ""width:200px""alt=""img"">
                                </div>
                            </div>","134","","0","images/D34.png","","","","[""Hard"",""Soft""]"
"","","","","","html-slider-response","118","354416","0.0-114.0","wf97zg24a1","NaN","<div style=""width:500px;"">
                                <p style=""font-size:50px; font-weight:bold;""
                                ></p>
                                <div style=""width:240px; margin: auto;"">
                                    <img src=""images/D104.png"" style= ""width:200px""alt=""img"">
                                </div>
                            </div>","-110","","0","images/D104.png","","","","[""Hard"",""Soft""]"
"","","","","","html-slider-response","119","356006","0.0-115.0","wf97zg24a1","NaN","<div style=""width:500px;"">
                                <p style=""font-size:50px; font-weight:bold;""
                                ></p>
                                <div style=""width:240px; margin: auto;"">
                                    <img src=""images/D101.png"" style= ""width:200px""alt=""img"">
                                </div>
                            </div>","99","","0","images/D101.png","","","","[""Hard"",""Soft""]"
"","","","","","html-slider-response","120","357435","0.0-116.0","wf97zg24a1","NaN","<div style=""width:500px;"">
                                <p style=""font-size:50px; font-weight:bold;""
                                ></p>
                                <div style=""width:240px; margin: auto;"">
                                    <img src=""images/D16.png"" style= ""width:200px""alt=""img"">
                                </div>
                            </div>","-110","","0","images/D16.png","","","","[""Hard"",""Soft""]"
"","","","","","html-slider-response","121","358859","0.0-117.0","wf97zg24a1","NaN","<div style=""width:500px;"">
                                <p style=""font-size:50px; font-weight:bold;""
                                ></p>
                                <div style=""width:240px; margin: auto;"">
                                    <img src=""images/D64.png"" style= ""width:200px""alt=""img"">
                                </div>
                            </div>","-193","","0","images/D64.png","","","","[""Hard"",""Soft""]"
"","","","","","html-slider-response","122","360393","0.0-118.0","wf97zg24a1","NaN","<div style=""width:500px;"">
                                <p style=""font-size:50px; font-weight:bold;""
                                ></p>
                                <div style=""width:240px; margin: auto;"">
                                    <img src=""images/D19.png"" style= ""width:200px""alt=""img"">
                                </div>
                            </div>","-126","","0","images/D19.png","","","","[""Hard"",""Soft""]"
"","","","","","html-slider-response","123","362164","0.0-119.0","wf97zg24a1","NaN","<div style=""width:500px;"">
                                <p style=""font-size:50px; font-weight:bold;""
                                ></p>
                                <div style=""width:240px; margin: auto;"">
                                    <img src=""images/D22.png"" style= ""width:200px""alt=""img"">
                                </div>
                            </div>","18","","0","images/D22.png","","","","[""Hard"",""Soft""]"
"","","","","","html-slider-response","124","363690","0.0-120.0","wf97zg24a1","NaN","<div style=""width:500px;"">
                                <p style=""font-size:50px; font-weight:bold;""
                                ></p>
                                <div style=""width:240px; margin: auto;"">
                                    <img src=""images/D35.png"" style= ""width:200px""alt=""img"">
                                </div>
                            </div>","79","","0","images/D35.png","","","","[""Hard"",""Soft""]"
"","","","","","html-slider-response","125","365303","0.0-121.0","wf97zg24a1","NaN","<div style=""width:500px;"">
                                <p style=""font-size:50px; font-weight:bold;""
                                ></p>
                                <div style=""width:240px; margin: auto;"">
                                    <img src=""images/D18.png"" style= ""width:200px""alt=""img"">
                                </div>
                            </div>","-98","","0","images/D18.png","","","","[""Hard"",""Soft""]"
"","","","","","html-slider-response","126","368317","0.0-122.0","wf97zg24a1","NaN","<div style=""width:500px;"">
                                <p style=""font-size:50px; font-weight:bold;""
                                ></p>
                                <div style=""width:240px; margin: auto;"">
                                    <img src=""images/D3.png"" style= ""width:200px""alt=""img"">
                                </div>
                            </div>","-58","","0","images/D3.png","","","","[""Hard"",""Soft""]"
"","","","","","html-slider-response","127","370645","0.0-123.0","wf97zg24a1","NaN","<div style=""width:500px;"">
                                <p style=""font-size:50px; font-weight:bold;""
                                ></p>
                                <div style=""width:240px; margin: auto;"">
                                    <img src=""images/D37.png"" style= ""width:200px""alt=""img"">
                                </div>
                            </div>","121","","0","images/D37.png","","","","[""Hard"",""Soft""]"
"","","","","","html-slider-response","128","377830","0.0-124.0","wf97zg24a1","NaN","<div style=""width:500px;"">
                                <p style=""font-size:50px; font-weight:bold;""
                                ></p>
                                <div style=""width:240px; margin: auto;"">
                                    <img src=""images/D51.png"" style= ""width:200px""alt=""img"">
                                </div>
                            </div>","-121","","0","images/D51.png","","","","[""Hard"",""Soft""]"
"","","","","","html-slider-response","129","379997","0.0-125.0","wf97zg24a1","NaN","<div style=""width:500px;"">
                                <p style=""font-size:50px; font-weight:bold;""
                                ></p>
                                <div style=""width:240px; margin: auto;"">
                                    <img src=""images/D25.png"" style= ""width:200px""alt=""img"">
                                </div>
                            </div>","-200","","0","images/D25.png","","","","[""Hard"",""Soft""]"
"","","","","","html-slider-response","130","382254","0.0-126.0","wf97zg24a1","NaN","<div style=""width:500px;"">
                                <p style=""font-size:50px; font-weight:bold;""
                                ></p>
                                <div style=""width:240px; margin: auto;"">
                                    <img src=""images/D17.png"" style= ""width:200px""alt=""img"">
                                </div>
                            </div>","-94","","0","images/D17.png","","","","[""Hard"",""Soft""]"
"","","","","","html-slider-response","131","383961","0.0-127.0","wf97zg24a1","NaN","<div style=""width:500px;"">
                                <p style=""font-size:50px; font-weight:bold;""
                                ></p>
                                <div style=""width:240px; margin: auto;"">
                                    <img src=""images/D94.png"" style= ""width:200px""alt=""img"">
                                </div>
                            </div>","-200","","0","images/D94.png","","","","[""Hard"",""Soft""]"
"","","","","","html-slider-response","132","385814","0.0-128.0","wf97zg24a1","NaN","<div style=""width:500px;"">
                                <p style=""font-size:50px; font-weight:bold;""
                                ></p>
                                <div style=""width:240px; margin: auto;"">
                                    <img src=""images/D46.png"" style= ""width:200px""alt=""img"">
                                </div>
                            </div>","30","","0","images/D46.png","","","","[""Hard"",""Soft""]"
"","","","","","html-slider-response","133","387339","0.0-129.0","wf97zg24a1","NaN","<div style=""width:500px;"">
                                <p style=""font-size:50px; font-weight:bold;""
                                ></p>
                                <div style=""width:240px; margin: auto;"">
                                    <img src=""images/D105.png"" style= ""width:200px""alt=""img"">
                                </div>
                            </div>","-200","","0","images/D105.png","","","","[""Hard"",""Soft""]"
"","","","","","html-slider-response","134","388992","0.0-130.0","wf97zg24a1","NaN","<div style=""width:500px;"">
                                <p style=""font-size:50px; font-weight:bold;""
                                ></p>
                                <div style=""width:240px; margin: auto;"">
                                    <img src=""images/D53.png"" style= ""width:200px""alt=""img"">
                                </div>
                            </div>","-85","","0","images/D53.png","","","","[""Hard"",""Soft""]"
"","","","","","html-slider-response","135","391380","0.0-131.0","wf97zg24a1","NaN","<div style=""width:500px;"">
                                <p style=""font-size:50px; font-weight:bold;""
                                ></p>
                                <div style=""width:240px; margin: auto;"">
                                    <img src=""images/D4.png"" style= ""width:200px""alt=""img"">
                                </div>
                            </div>","-100","","0","images/D4.png","","","","[""Hard"",""Soft""]"
"","","","","","html-slider-response","136","395511","0.0-132.0","wf97zg24a1","NaN","<div style=""width:500px;"">
                                <p style=""font-size:50px; font-weight:bold;""
                                ></p>
                                <div style=""width:240px; margin: auto;"">
                                    <img src=""images/D82.png"" style= ""width:200px""alt=""img"">
                                </div>
                            </div>","-108","","0","images/D82.png","","","","[""Hard"",""Soft""]"
"","","","","","html-slider-response","137","397571","0.0-133.0","wf97zg24a1","NaN","<div style=""width:500px;"">
                                <p style=""font-size:50px; font-weight:bold;""
                                ></p>
                                <div style=""width:240px; margin: auto;"">
                                    <img src=""images/D66.png"" style= ""width:200px""alt=""img"">
                                </div>
                            </div>","109","","0","images/D66.png","","","","[""Hard"",""Soft""]"
"","","","","","html-slider-response","138","399002","0.0-134.0","wf97zg24a1","NaN","<div style=""width:500px;"">
                                <p style=""font-size:50px; font-weight:bold;""
                                ></p>
                                <div style=""width:240px; margin: auto;"">
                                    <img src=""images/D83.png"" style= ""width:200px""alt=""img"">
                                </div>
                            </div>","-83","","0","images/D83.png","","","","[""Hard"",""Soft""]"
"","","","","","html-slider-response","139","400668","0.0-135.0","wf97zg24a1","NaN","<div style=""width:500px;"">
                                <p style=""font-size:50px; font-weight:bold;""
                                ></p>
                                <div style=""width:240px; margin: auto;"">
                                    <img src=""images/D92.png"" style= ""width:200px""alt=""img"">
                                </div>
                            </div>","44","","0","images/D92.png","","","","[""Hard"",""Soft""]"
"","","","","","html-slider-response","140","402274","0.0-136.0","wf97zg24a1","NaN","<div style=""width:500px;"">
                                <p style=""font-size:50px; font-weight:bold;""
                                ></p>
                                <div style=""width:240px; margin: auto;"">
                                    <img src=""images/D52.png"" style= ""width:200px""alt=""img"">
                                </div>
                            </div>","98","","0","images/D52.png","","","","[""Hard"",""Soft""]"
"","","","","","html-slider-response","141","404176","0.0-137.0","wf97zg24a1","NaN","<div style=""width:500px;"">
                                <p style=""font-size:50px; font-weight:bold;""
                                ></p>
                                <div style=""width:240px; margin: auto;"">
                                    <img src=""images/D102.png"" style= ""width:200px""alt=""img"">
                                </div>
                            </div>","-104","","0","images/D102.png","","","","[""Hard"",""Soft""]"
"","","","","","html-slider-response","142","405701","0.0-138.0","wf97zg24a1","NaN","<div style=""width:500px;"">
                                <p style=""font-size:50px; font-weight:bold;""
                                ></p>
                                <div style=""width:240px; margin: auto;"">
                                    <img src=""images/D106.png"" style= ""width:200px""alt=""img"">
                                </div>
                            </div>","-74","","0","images/D106.png","","","","[""Hard"",""Soft""]"
"","","","","","html-slider-response","143","407462","0.0-139.0","wf97zg24a1","NaN","<div style=""width:500px;"">
                                <p style=""font-size:50px; font-weight:bold;""
                                ></p>
                                <div style=""width:240px; margin: auto;"">
                                    <img src=""images/D14.png"" style= ""width:200px""alt=""img"">
                                </div>
                            </div>","-84","","0","images/D14.png","","","","[""Hard"",""Soft""]"
"","","","","","html-button-response","144","410920","0.0-140.0","wf97zg24a1","2954","You have completed the second block of trials out of six. Please click 'Continue' when you are ready proceed.","0","","","","","","",""
"","","","","","html-button-response","145","412207","0.0-141.0","wf97zg24a1","1286","In the following trials, you will be asked to rate textures on the scale <b>Rough</b> versus <b>Smooth</b>. Please click 'Continue' when you are ready proceed.","0","","","","","","",""
"","","","","","html-slider-response","146","413983","0.0-142.0","wf97zg24a1","NaN","<div style=""width:500px;"">
                                <p style=""font-size:50px; font-weight:bold;""
                                ></p>
                                <div style=""width:240px; margin: auto;"">
                                    <img src=""images/D21.png"" style= ""width:200px""alt=""img"">
                                </div>
                            </div>","-89","","0","images/D21.png","","","","[""Rough"",""Smooth""]"
"","","","","","html-slider-response","147","415706","0.0-143.0","wf97zg24a1","NaN","<div style=""width:500px;"">
                                <p style=""font-size:50px; font-weight:bold;""
                                ></p>
                                <div style=""width:240px; margin: auto;"">
                                    <img src=""images/D103.png"" style= ""width:200px""alt=""img"">
                                </div>
                            </div>","-74","","0","images/D103.png","","","","[""Rough"",""Smooth""]"
"","","","","","html-slider-response","148","417527","0.0-144.0","wf97zg24a1","NaN","<div style=""width:500px;"">
                                <p style=""font-size:50px; font-weight:bold;""
                                ></p>
                                <div style=""width:240px; margin: auto;"">
                                    <img src=""images/D79.png"" style= ""width:200px""alt=""img"">
                                </div>
                            </div>","24","","0","images/D79.png","","","","[""Rough"",""Smooth""]"
"","","","","","html-slider-response","149","419052","0.0-145.0","wf97zg24a1","NaN","<div style=""width:500px;"">
                                <p style=""font-size:50px; font-weight:bold;""
                                ></p>
                                <div style=""width:240px; margin: auto;"">
                                    <img src=""images/D57.png"" style= ""width:200px""alt=""img"">
                                </div>
                            </div>","-54","","0","images/D57.png","","","","[""Rough"",""Smooth""]"
"","","","","","html-slider-response","150","420675","0.0-146.0","wf97zg24a1","NaN","<div style=""width:500px;"">
                                <p style=""font-size:50px; font-weight:bold;""
                                ></p>
                                <div style=""width:240px; margin: auto;"">
                                    <img src=""images/D9.png"" style= ""width:200px""alt=""img"">
                                </div>
                            </div>","-85","","0","images/D9.png","","","","[""Rough"",""Smooth""]"
"","","","","","html-slider-response","151","422535","0.0-147.0","wf97zg24a1","NaN","<div style=""width:500px;"">
                                <p style=""font-size:50px; font-weight:bold;""
                                ></p>
                                <div style=""width:240px; margin: auto;"">
                                    <img src=""images/D1.png"" style= ""width:200px""alt=""img"">
                                </div>
                            </div>","63","","0","images/D1.png","","","","[""Rough"",""Smooth""]"
"","","","","","html-slider-response","152","424496","0.0-148.0","wf97zg24a1","NaN","<div style=""width:500px;"">
                                <p style=""font-size:50px; font-weight:bold;""
                                ></p>
                                <div style=""width:240px; margin: auto;"">
                                    <img src=""images/D55.png"" style= ""width:200px""alt=""img"">
                                </div>
                            </div>","-146","","0","images/D55.png","","","","[""Rough"",""Smooth""]"
"","","","","","html-slider-response","153","426183","0.0-149.0","wf97zg24a1","NaN","<div style=""width:500px;"">
                                <p style=""font-size:50px; font-weight:bold;""
                                ></p>
                                <div style=""width:240px; margin: auto;"">
                                    <img src=""images/D68.png"" style= ""width:200px""alt=""img"">
                                </div>
                            </div>","58","","0","images/D68.png","","","","[""Rough"",""Smooth""]"
"","","","","","html-slider-response","154","428852","0.0-150.0","wf97zg24a1","NaN","<div style=""width:500px;"">
                                <p style=""font-size:50px; font-weight:bold;""
                                ></p>
                                <div style=""width:240px; margin: auto;"">
                                    <img src=""images/D77.png"" style= ""width:200px""alt=""img"">
                                </div>
                            </div>","-82","","0","images/D77.png","","","","[""Rough"",""Smooth""]"
"","","","","","html-slider-response","155","430384","0.0-151.0","wf97zg24a1","NaN","<div style=""width:500px;"">
                                <p style=""font-size:50px; font-weight:bold;""
                                ></p>
                                <div style=""width:240px; margin: auto;"">
                                    <img src=""images/D81.png"" style= ""width:200px""alt=""img"">
                                </div>
                            </div>","-72","","0","images/D81.png","","","","[""Rough"",""Smooth""]"
"","","","","","html-slider-response","156","432015","0.0-152.0","wf97zg24a1","NaN","<div style=""width:500px;"">
                                <p style=""font-size:50px; font-weight:bold;""
                                ></p>
                                <div style=""width:240px; margin: auto;"">
                                    <img src=""images/D84.png"" style= ""width:200px""alt=""img"">
                                </div>
                            </div>","-86","","0","images/D84.png","","","","[""Rough"",""Smooth""]"
"","","","","","html-slider-response","157","433912","0.0-153.0","wf97zg24a1","NaN","<div style=""width:500px;"">
                                <p style=""font-size:50px; font-weight:bold;""
                                ></p>
                                <div style=""width:240px; margin: auto;"">
                                    <img src=""images/D111.png"" style= ""width:200px""alt=""img"">
                                </div>
                            </div>","49","","0","images/D111.png","","","","[""Rough"",""Smooth""]"
"","","","","","html-slider-response","158","435487","0.0-154.0","wf97zg24a1","NaN","<div style=""width:500px;"">
                                <p style=""font-size:50px; font-weight:bold;""
                                ></p>
                                <div style=""width:240px; margin: auto;"">
                                    <img src=""images/D29.png"" style= ""width:200px""alt=""img"">
                                </div>
                            </div>","50","","0","images/D29.png","","","","[""Rough"",""Smooth""]"
"","","","","","html-slider-response","159","437276","0.0-155.0","wf97zg24a1","NaN","<div style=""width:500px;"">
                                <p style=""font-size:50px; font-weight:bold;""
                                ></p>
                                <div style=""width:240px; margin: auto;"">
                                    <img src=""images/D74.png"" style= ""width:200px""alt=""img"">
                                </div>
                            </div>","87","","0","images/D74.png","","","","[""Rough"",""Smooth""]"
"","","","","","html-slider-response","160","438817","0.0-156.0","wf97zg24a1","NaN","<div style=""width:500px;"">
                                <p style=""font-size:50px; font-weight:bold;""
                                ></p>
                                <div style=""width:240px; margin: auto;"">
                                    <img src=""images/D96.png"" style= ""width:200px""alt=""img"">
                                </div>
                            </div>","-128","","0","images/D96.png","","","","[""Rough"",""Smooth""]"
"","","","","","html-slider-response","161","440638","0.0-157.0","wf97zg24a1","NaN","<div style=""width:500px;"">
                                <p style=""font-size:50px; font-weight:bold;""
                                ></p>
                                <div style=""width:240px; margin: auto;"">
                                    <img src=""images/D26.png"" style= ""width:200px""alt=""img"">
                                </div>
                            </div>","133","","0","images/D26.png","","","","[""Rough"",""Smooth""]"
"","","","","","html-slider-response","162","442187","0.0-158.0","wf97zg24a1","NaN","<div style=""width:500px;"">
                                <p style=""font-size:50px; font-weight:bold;""
                                ></p>
                                <div style=""width:240px; margin: auto;"">
                                    <img src=""images/D80.png"" style= ""width:200px""alt=""img"">
                                </div>
                            </div>","-119","","0","images/D80.png","","","","[""Rough"",""Smooth""]"
"","","","","","html-slider-response","163","443943","0.0-159.0","wf97zg24a1","NaN","<div style=""width:500px;"">
                                <p style=""font-size:50px; font-weight:bold;""
                                ></p>
                                <div style=""width:240px; margin: auto;"">
                                    <img src=""images/D75.png"" style= ""width:200px""alt=""img"">
                                </div>
                            </div>","81","","0","images/D75.png","","","","[""Rough"",""Smooth""]"
"","","","","","html-slider-response","164","445978","0.0-160.0","wf97zg24a1","NaN","<div style=""width:500px;"">
                                <p style=""font-size:50px; font-weight:bold;""
                                ></p>
                                <div style=""width:240px; margin: auto;"">
                                    <img src=""images/D78.png"" style= ""width:200px""alt=""img"">
                                </div>
                            </div>","100","","0","images/D78.png","","","","[""Rough"",""Smooth""]"
"","","","","","html-slider-response","165","447608","0.0-161.0","wf97zg24a1","NaN","<div style=""width:500px;"">
                                <p style=""font-size:50px; font-weight:bold;""
                                ></p>
                                <div style=""width:240px; margin: auto;"">
                                    <img src=""images/D6.png"" style= ""width:200px""alt=""img"">
                                </div>
                            </div>","113","","0","images/D6.png","","","","[""Rough"",""Smooth""]"
"","","","","","html-slider-response","166","449355","0.0-162.0","wf97zg24a1","NaN","<div style=""width:500px;"">
                                <p style=""font-size:50px; font-weight:bold;""
                                ></p>
                                <div style=""width:240px; margin: auto;"">
                                    <img src=""images/D65.png"" style= ""width:200px""alt=""img"">
                                </div>
                            </div>","-81","","0","images/D65.png","","","","[""Rough"",""Smooth""]"
"","","","","","html-slider-response","167","451112","0.0-163.0","wf97zg24a1","NaN","<div style=""width:500px;"">
                                <p style=""font-size:50px; font-weight:bold;""
                                ></p>
                                <div style=""width:240px; margin: auto;"">
                                    <img src=""images/D36.png"" style= ""width:200px""alt=""img"">
                                </div>
                            </div>","119","","0","images/D36.png","","","","[""Rough"",""Smooth""]"
"","","","","","html-slider-response","168","452660","0.0-164.0","wf97zg24a1","NaN","<div style=""width:500px;"">
                                <p style=""font-size:50px; font-weight:bold;""
                                ></p>
                                <div style=""width:240px; margin: auto;"">
                                    <img src=""images/D47.png"" style= ""width:200px""alt=""img"">
                                </div>
                            </div>","134","","0","images/D47.png","","","","[""Rough"",""Smooth""]"
"","","","","","html-slider-response","169","454742","0.0-165.0","wf97zg24a1","NaN","<div style=""width:500px;"">
                                <p style=""font-size:50px; font-weight:bold;""
                                ></p>
                                <div style=""width:240px; margin: auto;"">
                                    <img src=""images/D76.png"" style= ""width:200px""alt=""img"">
                                </div>
                            </div>","115","","0","images/D76.png","","","","[""Rough"",""Smooth""]"
"","","","","","html-slider-response","170","456303","0.0-166.0","wf97zg24a1","NaN","<div style=""width:500px;"">
                                <p style=""font-size:50px; font-weight:bold;""
                                ></p>
                                <div style=""width:240px; margin: auto;"">
                                    <img src=""images/D87.png"" style= ""width:200px""alt=""img"">
                                </div>
                            </div>","136","","0","images/D87.png","","","","[""Rough"",""Smooth""]"
"","","","","","html-slider-response","171","458459","0.0-167.0","wf97zg24a1","NaN","<div style=""width:500px;"">
                                <p style=""font-size:50px; font-weight:bold;""
                                ></p>
                                <div style=""width:240px; margin: auto;"">
                                    <img src=""images/D20.png"" style= ""width:200px""alt=""img"">
                                </div>
                            </div>","102","","0","images/D20.png","","","","[""Rough"",""Smooth""]"
"","","","","","html-slider-response","172","460196","0.0-168.0","wf97zg24a1","NaN","<div style=""width:500px;"">
                                <p style=""font-size:50px; font-weight:bold;""
                                ></p>
                                <div style=""width:240px; margin: auto;"">
                                    <img src=""images/D56.png"" style= ""width:200px""alt=""img"">
                                </div>
                            </div>","-145","","0","images/D56.png","","","","[""Rough"",""Smooth""]"
"","","","","","html-slider-response","173","463152","0.0-169.0","wf97zg24a1","NaN","<div style=""width:500px;"">
                                <p style=""font-size:50px; font-weight:bold;""
                                ></p>
                                <div style=""width:240px; margin: auto;"">
                                    <img src=""images/D11.png"" style= ""width:200px""alt=""img"">
                                </div>
                            </div>","90","","0","images/D11.png","","","","[""Rough"",""Smooth""]"
"","","","","","html-slider-response","174","464536","0.0-170.0","wf97zg24a1","NaN","<div style=""width:500px;"">
                                <p style=""font-size:50px; font-weight:bold;""
                                ></p>
                                <div style=""width:240px; margin: auto;"">
                                    <img src=""images/D32.png"" style= ""width:200px""alt=""img"">
                                </div>
                            </div>","-90","","0","images/D32.png","","","","[""Rough"",""Smooth""]"
"","","","","","html-slider-response","175","466195","0.0-171.0","wf97zg24a1","NaN","<div style=""width:500px;"">
                                <p style=""font-size:50px; font-weight:bold;""
                                ></p>
                                <div style=""width:240px; margin: auto;"">
                                    <img src=""images/D24.png"" style= ""width:200px""alt=""img"">
                                </div>
                            </div>","-110","","0","images/D24.png","","","","[""Rough"",""Smooth""]"
"","","","","","html-slider-response","176","467898","0.0-172.0","wf97zg24a1","NaN","<div style=""width:500px;"">
                                <p style=""font-size:50px; font-weight:bold;""
                                ></p>
                                <div style=""width:240px; margin: auto;"">
                                    <img src=""images/D8.png"" style= ""width:200px""alt=""img"">
                                </div>
                            </div>","70","","0","images/D8.png","","","","[""Rough"",""Smooth""]"
"","","","","","html-slider-response","177","469682","0.0-173.0","wf97zg24a1","NaN","<div style=""width:500px;"">
                                <p style=""font-size:50px; font-weight:bold;""
                                ></p>
                                <div style=""width:240px; margin: auto;"">
                                    <img src=""images/D49.png"" style= ""width:200px""alt=""img"">
                                </div>
                            </div>","126","","0","images/D49.png","","","","[""Rough"",""Smooth""]"
"","","","","","html-slider-response","178","471308","0.0-174.0","wf97zg24a1","NaN","<div style=""width:500px;"">
                                <p style=""font-size:50px; font-weight:bold;""
                                ></p>
                                <div style=""width:240px; margin: auto;"">
                                    <img src=""images/D95.png"" style= ""width:200px""alt=""img"">
                                </div>
                            </div>","-200","","0","images/D95.png","","","","[""Rough"",""Smooth""]"
"","","","","","html-slider-response","179","472999","0.0-175.0","wf97zg24a1","NaN","<div style=""width:500px;"">
                                <p style=""font-size:50px; font-weight:bold;""
                                ></p>
                                <div style=""width:240px; margin: auto;"">
                                    <img src=""images/D48.png"" style= ""width:200px""alt=""img"">
                                </div>
                            </div>","67","","0","images/D48.png","","","","[""Rough"",""Smooth""]"
"","","","","","html-slider-response","180","474889","0.0-176.0","wf97zg24a1","NaN","<div style=""width:500px;"">
                                <p style=""font-size:50px; font-weight:bold;""
                                ></p>
                                <div style=""width:240px; margin: auto;"">
                                    <img src=""images/D85.png"" style= ""width:200px""alt=""img"">
                                </div>
                            </div>","-126","","0","images/D85.png","","","","[""Rough"",""Smooth""]"
"","","","","","html-slider-response","181","476662","0.0-177.0","wf97zg24a1","NaN","<div style=""width:500px;"">
                                <p style=""font-size:50px; font-weight:bold;""
                                ></p>
                                <div style=""width:240px; margin: auto;"">
                                    <img src=""images/D34.png"" style= ""width:200px""alt=""img"">
                                </div>
                            </div>","109","","0","images/D34.png","","","","[""Rough"",""Smooth""]"
"","","","","","html-slider-response","182","480795","0.0-178.0","wf97zg24a1","NaN","<div style=""width:500px;"">
                                <p style=""font-size:50px; font-weight:bold;""
                                ></p>
                                <div style=""width:240px; margin: auto;"">
                                    <img src=""images/D104.png"" style= ""width:200px""alt=""img"">
                                </div>
                            </div>","-83","","0","images/D104.png","","","","[""Rough"",""Smooth""]"
"","","","","","html-slider-response","183","482485","0.0-179.0","wf97zg24a1","NaN","<div style=""width:500px;"">
                                <p style=""font-size:50px; font-weight:bold;""
                                ></p>
                                <div style=""width:240px; margin: auto;"">
                                    <img src=""images/D101.png"" style= ""width:200px""alt=""img"">
                                </div>
                            </div>","-99","","0","images/D101.png","","","","[""Rough"",""Smooth""]"
"","","","","","html-slider-response","184","484117","0.0-180.0","wf97zg24a1","NaN","<div style=""width:500px;"">
                                <p style=""font-size:50px; font-weight:bold;""
                                ></p>
                                <div style=""width:240px; margin: auto;"">
                                    <img src=""images/D16.png"" style= ""width:200px""alt=""img"">
                                </div>
                            </div>","10","","0","images/D16.png","","","","[""Rough"",""Smooth""]"
"","","","","","html-slider-response","185","485632","0.0-181.0","wf97zg24a1","NaN","<div style=""width:500px;"">
                                <p style=""font-size:50px; font-weight:bold;""
                                ></p>
                                <div style=""width:240px; margin: auto;"">
                                    <img src=""images/D64.png"" style= ""width:200px""alt=""img"">
                                </div>
                            </div>","46","","0","images/D64.png","","","","[""Rough"",""Smooth""]"
"","","","","","html-slider-response","186","487241","0.0-182.0","wf97zg24a1","NaN","<div style=""width:500px;"">
                                <p style=""font-size:50px; font-weight:bold;""
                                ></p>
                                <div style=""width:240px; margin: auto;"">
                                    <img src=""images/D19.png"" style= ""width:200px""alt=""img"">
                                </div>
                            </div>","-62","","0","images/D19.png","","","","[""Rough"",""Smooth""]"
"","","","","","html-slider-response","187","492538","0.0-183.0","wf97zg24a1","NaN","<div style=""width:500px;"">
                                <p style=""font-size:50px; font-weight:bold;""
                                ></p>
                                <div style=""width:240px; margin: auto;"">
                                    <img src=""images/D22.png"" style= ""width:200px""alt=""img"">
                                </div>
                            </div>","44","","0","images/D22.png","","","","[""Rough"",""Smooth""]"
