"success","timeout","failed_images","failed_audio","failed_video","trial_type","trial_index","time_elapsed","internal_node_id","subject_id","rt","stimulus","response","question_order","slider_start","image_path","practiceTrial","practiceTrialNum","correct","slider_labels"
"true","false","[]","[]","[]","preload","0","467","0.0-0.0","ywj7ufgx5d","","","","","","","","","",""
"","","","","","html-button-response","1","12123","0.0-1.0","ywj7ufgx5d","11656","<div style='text-align:center; font-size:20px; line-height:25px; width: 1200px;'>
                Welcome to our experiment! <br>
                <br>At the bottom of this screen, you will see a button that says 'Begin Experiment.
                <br>Please only click that button when you are ready to complete the 25 minute experiment in one sitting. <br>
                <br> Once you click that button, it will not be possible to restart the experiment. <br><br>","0","","","","","","",""
"true","","","","","fullscreen","2","15425","0.0-2.0","ywj7ufgx5d","2299","","","","","","","","",""
"","","","","","survey-multi-select","3","25172","0.0-3.0","ywj7ufgx5d","9744","","{""Consent"":[""<strong>I consent</strong>""]}","[0]","","","","","",""
"","","","","","html-button-response","4","27454","0.0-4.0","ywj7ufgx5d","2279","Welcome! <p> This experiment involves two parts: demographic information, followed by the experimental task.<p> It will take about 25 minutes to complete both parts.","0","","","","","","",""
"","","","","","survey-text","5","37838","0.0-5.0","ywj7ufgx5d","10382","","{""Age"":""18"",""Gender"":""Female"",""Race/ethnicity"":""White""}","","","","","","",""
"","","","","","html-slider-response","6","161020","0.0-6.0","ywj7ufgx5d","123184","
                <div style='text-align:center; height: auto; margin-left=-100px; margin-bottom: -20px; font-size:20px; line-height:5px; width: 1200px;'>
                    <br>During this experiment, you will see a series of textures, one at a time, like the ones below: 
                </div>
                    <br>
                    <br>
                    <img src=""anchoring_visual_textures.png"" alt=""img"" style=""max-width:1200px; margin-left: -10px;"">
                </div>
                <div style=""clear: both;""></div>
                </div>
                    <div style='text-align:center; margin-left=-100px; font-size:20px; line-height:20px; width: 1200px; margin-top: -50px;'>
                    
                    <br> For each texture, you will be asked to rate where you think it falls on each of the response scales with the following endpoints:
                    </div>
                            <div style=""text-align: center; width: 1400px; "">
                                <p style=""font-size:20px; line-height:5px; ""><b>Blobby</b> versus <b>Stripey</b></p>
                                <p style=""font-size:20px; line-height:5px; ""><b>Rounded</b> versus <b>Rectangular</b></p>
                                <p style=""font-size:20px;line-height:5px;""><b>Coarse</b> versus <b>Fine</b></p>
                                <p style=""font-size:20px;line-height:5px; ""><b>Rough</b> versus <b>Smooth</b></p>
                                <p style=""font-size:20px;line-height:5px; ""><b>Random</b> versus <b>Non-Random</b></p>
                                <p style=""font-size:20px;line-height:5px;""><b>Hard</b> versus <b>Soft</b></p>
                            </div>
                            <div style='text-align:center; font-size:20px; line-height:20px; width: 1400px;'>
                    
                    Each trial will include one texture and one response scale. You will be asked to make your rating by sliding the cursor along a slider response scale like the one below.
                    <br><br> Before beginning, please look at the textures and scales. For each scale, think about the texture you associate most with the left endpoint. When you see that texture for that response scale, please click near the left of the scale.
                    <br><br> Now, please think about the texture you associate most with the right endpoint of each scale. When you see that texture for that response scale, please click near the right of the scale. 
                    <br><br> If you think a texture is not strongly associated with either endpoint of the scale, please click near the midpoint of the scale. Please use the full range of the scale. 
                    <br><br> You will be asked to rate each texture for a given scale before moving on to the next scale.
                    <br><br> Please press the 'Continue' button for instructions on how to use the slider.                     <br><br>
                ","null","","0","visual_textures_anchoring.png","true","","",""
"","","","","","html-button-response","7","172107","0.0-7.0","ywj7ufgx5d","11087","<div style=""width:1200px; margin-top:-150px;""><p style=""text-align:center; font-size:24px;"">To move the slider, click and drag your cursor to the location of the scale where you would like to make your rating and then let go. <br><br> When you let go of the slider, your response will be recorded and the next trial will begin. <br><br><br>
                We are interested in your initial impressions of each texture and scale, so please go with your first intuition. <br><br>
                Before you begin the experiment, there will be four training trials for you to practice using the scale. <br><br><br><br></div>
                <div style=""width:1200px;""><p style=""text-align:center; font-size:20px;"">When you are ready to start the training trials, please click ""Continue"".</p></div>","0","","","","","","",""
"","","","","","html-slider-response","8","177213","0.0-8.0-0.0","ywj7ufgx5d","NaN","<div style=""width:500px;"">
                                <p style=""font-size:25px;"">Please move the slider all the way to the <br> right endpoint of the scale</p>

                                </div>
                            </div>","174","","0","","true","0","false",""
"","","","","","html-button-response","9","181520","0.0-8.0-1.0","ywj7ufgx5d","3802","<p align='center'><b>Not quite!</b> The slider was not placed near the instructed locattion. Click on 'Continue' to try again. </p>","0","","","","","","",""
"","","","","","html-slider-response","10","183931","0.0-8.1-0.1","ywj7ufgx5d","NaN","<div style=""width:500px;"">
                                <p style=""font-size:25px;"">Please move the slider all the way to the <br> right endpoint of the scale</p>

                                </div>
                            </div>","192","","0","","true","0","true",""
"","","","","","html-button-response","11","187069","0.0-8.1-1.1","ywj7ufgx5d","2636","<p align='center'><b>Good job!</b> Click on 'Continue' to proceed.</p>","0","","","","","","",""
"","","","","","html-slider-response","12","189366","0.0-9.0-0.0","ywj7ufgx5d","NaN","<div style=""width:500px;"">
                                <p style=""font-size:25px;"">Please move the slider all the way to the <br> left endpoint of the scale</p>

                                </div>
                            </div>","-194","","0","","true","1","true",""
"","","","","","html-button-response","13","191218","0.0-9.0-1.0","ywj7ufgx5d","1350","<p align='center'><b>Good job!</b> Click on 'Continue' to proceed.</p>","0","","","","","","",""
"","","","","","html-slider-response","14","193647","0.0-10.0-0.0","ywj7ufgx5d","NaN","<div style=""width:500px;"">
                                <p style=""font-size:25px;"">Please move the slider halfway between the center and right endpoint of the scale</p>

                                </div>
                            </div>","2","","0","","true","2","false",""
"","","","","","html-button-response","15","196838","0.0-10.0-1.0","ywj7ufgx5d","2689","<p align='center'><b>Not quite!</b> The slider was not placed near the instructed locattion. Click on 'Continue' to try again. </p>","0","","","","","","",""
"","","","","","html-slider-response","16","199964","0.0-10.1-0.1","ywj7ufgx5d","NaN","<div style=""width:500px;"">
                                <p style=""font-size:25px;"">Please move the slider halfway between the center and right endpoint of the scale</p>

                                </div>
                            </div>","6","","0","","true","2","false",""
"","","","","","html-button-response","17","202521","0.0-10.1-1.1","ywj7ufgx5d","2054","<p align='center'><b>Not quite!</b> The slider was not placed near the instructed locattion. Click on 'Continue' to try again. </p>","0","","","","","","",""
"","","","","","html-slider-response","18","207313","0.0-10.2-0.2","ywj7ufgx5d","NaN","<div style=""width:500px;"">
                                <p style=""font-size:25px;"">Please move the slider halfway between the center and right endpoint of the scale</p>

                                </div>
                            </div>","94","","0","","true","2","true",""
"","","","","","html-button-response","19","208735","0.0-10.2-1.2","ywj7ufgx5d","920","<p align='center'><b>Good job!</b> Click on 'Continue' to proceed.</p>","0","","","","","","",""
"","","","","","html-slider-response","20","210363","0.0-11.0-0.0","ywj7ufgx5d","NaN","<div style=""width:500px;"">
                                <p style=""font-size:25px;"">Please move the slider halfway between the center and left endpoint of the scale</p>

                                </div>
                            </div>","-111","","0","","true","3","false",""
"","","","","","html-button-response","21","212536","0.0-11.0-1.0","ywj7ufgx5d","1670","<p align='center'><b>Not quite!</b> The slider was not placed near the instructed locattion. Click on 'Continue' to try again. </p>","0","","","","","","",""
"","","","","","html-slider-response","22","216767","0.0-11.1-0.1","ywj7ufgx5d","NaN","<div style=""width:500px;"">
                                <p style=""font-size:25px;"">Please move the slider halfway between the center and left endpoint of the scale</p>

                                </div>
                            </div>","-94","","0","","true","3","true",""
"","","","","","html-button-response","23","218269","0.0-11.1-1.1","ywj7ufgx5d","999","<p align='center'><b>Good job!</b> Click on 'Continue' to proceed.</p>","0","","","","","","",""
"","","","","","html-button-response","24","222169","0.0-12.0","ywj7ufgx5d","3899","<div style=""width:800px; margin-top:-300px;""><p style=""text-align:center; font-size:22px; line-height:25px;""""> Great job! You've completed the practice trials.</div>
                     <div style=""width:800px; margin-top:-20px;""><p style=""text-align:center""><br><br> In the following trials, you will be asked to rate textures on each scale one-by-one. <br> You will be given opportunities to take breaks when you have completed each block of trials. There are six total blocks of trials. <br><br> Please click continue to begin the main task.<br><br><br> </div>","0","","","","","","",""
"","","","","","html-button-response","25","225519","0.0-13.0","ywj7ufgx5d","3350","In the following trials, you will be asked to rate textures on the scale <b>Coarse</b> versus <b>Fine</b>. Please click 'Continue' when you are ready proceed.","0","","","","","","",""
"","","","","","html-slider-response","26","228814","0.0-14.0","ywj7ufgx5d","NaN","<div style=""width:500px;"">
                                <p style=""font-size:50px; font-weight:bold;""
                                ></p>
                                <div style=""width:240px; margin: auto;"">
                                    <img src=""images/D103.png"" style= ""width:200px""alt=""img"">
                                </div>
                            </div>","-130","","0","images/D103.png","","","","[""Coarse"",""Fine""]"
"","","","","","html-slider-response","27","231847","0.0-15.0","ywj7ufgx5d","NaN","<div style=""width:500px;"">
                                <p style=""font-size:50px; font-weight:bold;""
                                ></p>
                                <div style=""width:240px; margin: auto;"">
                                    <img src=""images/D56.png"" style= ""width:200px""alt=""img"">
                                </div>
                            </div>","-128","","0","images/D56.png","","","","[""Coarse"",""Fine""]"
"","","","","","html-slider-response","28","234731","0.0-16.0","ywj7ufgx5d","NaN","<div style=""width:500px;"">
                                <p style=""font-size:50px; font-weight:bold;""
                                ></p>
                                <div style=""width:240px; margin: auto;"">
                                    <img src=""images/D77.png"" style= ""width:200px""alt=""img"">
                                </div>
                            </div>","-128","","0","images/D77.png","","","","[""Coarse"",""Fine""]"
"","","","","","html-slider-response","29","236532","0.0-17.0","ywj7ufgx5d","NaN","<div style=""width:500px;"">
                                <p style=""font-size:50px; font-weight:bold;""
                                ></p>
                                <div style=""width:240px; margin: auto;"">
                                    <img src=""images/D85.png"" style= ""width:200px""alt=""img"">
                                </div>
                            </div>","-128","","0","images/D85.png","","","","[""Coarse"",""Fine""]"
"","","","","","html-slider-response","30","239097","0.0-18.0","ywj7ufgx5d","NaN","<div style=""width:500px;"">
                                <p style=""font-size:50px; font-weight:bold;""
                                ></p>
                                <div style=""width:240px; margin: auto;"">
                                    <img src=""images/D25.png"" style= ""width:200px""alt=""img"">
                                </div>
                            </div>","130","","0","images/D25.png","","","","[""Coarse"",""Fine""]"
"","","","","","html-slider-response","31","241046","0.0-19.0","ywj7ufgx5d","NaN","<div style=""width:500px;"">
                                <p style=""font-size:50px; font-weight:bold;""
                                ></p>
                                <div style=""width:240px; margin: auto;"">
                                    <img src=""images/D4.png"" style= ""width:200px""alt=""img"">
                                </div>
                            </div>","-139","","0","images/D4.png","","","","[""Coarse"",""Fine""]"
"","","","","","html-slider-response","32","243113","0.0-20.0","ywj7ufgx5d","NaN","<div style=""width:500px;"">
                                <p style=""font-size:50px; font-weight:bold;""
                                ></p>
                                <div style=""width:240px; margin: auto;"">
                                    <img src=""images/D20.png"" style= ""width:200px""alt=""img"">
                                </div>
                            </div>","118","","0","images/D20.png","","","","[""Coarse"",""Fine""]"
"","","","","","html-slider-response","33","244981","0.0-21.0","ywj7ufgx5d","NaN","<div style=""width:500px;"">
                                <p style=""font-size:50px; font-weight:bold;""
                                ></p>
                                <div style=""width:240px; margin: auto;"">
                                    <img src=""images/D68.png"" style= ""width:200px""alt=""img"">
                                </div>
                            </div>","123","","0","images/D68.png","","","","[""Coarse"",""Fine""]"
"","","","","","html-slider-response","34","246779","0.0-22.0","ywj7ufgx5d","NaN","<div style=""width:500px;"">
                                <p style=""font-size:50px; font-weight:bold;""
                                ></p>
                                <div style=""width:240px; margin: auto;"">
                                    <img src=""images/D92.png"" style= ""width:200px""alt=""img"">
                                </div>
                            </div>","-133","","0","images/D92.png","","","","[""Coarse"",""Fine""]"
"","","","","","html-slider-response","35","249013","0.0-23.0","ywj7ufgx5d","NaN","<div style=""width:500px;"">
                                <p style=""font-size:50px; font-weight:bold;""
                                ></p>
                                <div style=""width:240px; margin: auto;"">
                                    <img src=""images/D76.png"" style= ""width:200px""alt=""img"">
                                </div>
                            </div>","-138","","0","images/D76.png","","","","[""Coarse"",""Fine""]"
"","","","","","html-slider-response","36","250783","0.0-24.0","ywj7ufgx5d","NaN","<div style=""width:500px;"">
                                <p style=""font-size:50px; font-weight:bold;""
                                ></p>
                                <div style=""width:240px; margin: auto;"">
                                    <img src=""images/D32.png"" style= ""width:200px""alt=""img"">
                                </div>
                            </div>","-135","","0","images/D32.png","","","","[""Coarse"",""Fine""]"
"","","","","","html-slider-response","37","252148","0.0-25.0","ywj7ufgx5d","NaN","<div style=""width:500px;"">
                                <p style=""font-size:50px; font-weight:bold;""
                                ></p>
                                <div style=""width:240px; margin: auto;"">
                                    <img src=""images/D82.png"" style= ""width:200px""alt=""img"">
                                </div>
                            </div>","-135","","0","images/D82.png","","","","[""Coarse"",""Fine""]"
"","","","","","html-slider-response","38","254103","0.0-26.0","ywj7ufgx5d","NaN","<div style=""width:500px;"">
                                <p style=""font-size:50px; font-weight:bold;""
                                ></p>
                                <div style=""width:240px; margin: auto;"">
                                    <img src=""images/D94.png"" style= ""width:200px""alt=""img"">
                                </div>
                            </div>","139","","0","images/D94.png","","","","[""Coarse"",""Fine""]"
"","","","","","html-slider-response","39","255713","0.0-27.0","ywj7ufgx5d","NaN","<div style=""width:500px;"">
                                <p style=""font-size:50px; font-weight:bold;""
                                ></p>
                                <div style=""width:240px; margin: auto;"">
                                    <img src=""images/D106.png"" style= ""width:200px""alt=""img"">
                                </div>
                            </div>","125","","0","images/D106.png","","","","[""Coarse"",""Fine""]"
"","","","","","html-slider-response","40","257697","0.0-28.0","ywj7ufgx5d","NaN","<div style=""width:500px;"">
                                <p style=""font-size:50px; font-weight:bold;""
                                ></p>
                                <div style=""width:240px; margin: auto;"">
                                    <img src=""images/D24.png"" style= ""width:200px""alt=""img"">
                                </div>
                            </div>","136","","0","images/D24.png","","","","[""Coarse"",""Fine""]"
"","","","","","html-slider-response","41","259129","0.0-29.0","ywj7ufgx5d","NaN","<div style=""width:500px;"">
                                <p style=""font-size:50px; font-weight:bold;""
                                ></p>
                                <div style=""width:240px; margin: auto;"">
                                    <img src=""images/D78.png"" style= ""width:200px""alt=""img"">
                                </div>
                            </div>","130","","0","images/D78.png","","","","[""Coarse"",""Fine""]"
"","","","","","html-slider-response","42","260548","0.0-30.0","ywj7ufgx5d","NaN","<div style=""width:500px;"">
                                <p style=""font-size:50px; font-weight:bold;""
                                ></p>
                                <div style=""width:240px; margin: auto;"">
                                    <img src=""images/D51.png"" style= ""width:200px""alt=""img"">
                                </div>
                            </div>","127","","0","images/D51.png","","","","[""Coarse"",""Fine""]"
"","","","","","html-slider-response","43","262846","0.0-31.0","ywj7ufgx5d","NaN","<div style=""width:500px;"">
                                <p style=""font-size:50px; font-weight:bold;""
                                ></p>
                                <div style=""width:240px; margin: auto;"">
                                    <img src=""images/D18.png"" style= ""width:200px""alt=""img"">
                                </div>
                            </div>","-130","","0","images/D18.png","","","","[""Coarse"",""Fine""]"
"","","","","","html-slider-response","44","265380","0.0-32.0","ywj7ufgx5d","NaN","<div style=""width:500px;"">
                                <p style=""font-size:50px; font-weight:bold;""
                                ></p>
                                <div style=""width:240px; margin: auto;"">
                                    <img src=""images/D29.png"" style= ""width:200px""alt=""img"">
                                </div>
                            </div>","-142","","0","images/D29.png","","","","[""Coarse"",""Fine""]"
"","","","","","html-slider-response","45","266796","0.0-33.0","ywj7ufgx5d","NaN","<div style=""width:500px;"">
                                <p style=""font-size:50px; font-weight:bold;""
                                ></p>
                                <div style=""width:240px; margin: auto;"">
                                    <img src=""images/D81.png"" style= ""width:200px""alt=""img"">
                                </div>
                            </div>","-138","","0","images/D81.png","","","","[""Coarse"",""Fine""]"
"","","","","","html-slider-response","46","268029","0.0-34.0","ywj7ufgx5d","NaN","<div style=""width:500px;"">
                                <p style=""font-size:50px; font-weight:bold;""
                                ></p>
                                <div style=""width:240px; margin: auto;"">
                                    <img src=""images/D37.png"" style= ""width:200px""alt=""img"">
                                </div>
                            </div>","-135","","0","images/D37.png","","","","[""Coarse"",""Fine""]"
"","","","","","html-slider-response","47","269563","0.0-35.0","ywj7ufgx5d","NaN","<div style=""width:500px;"">
                                <p style=""font-size:50px; font-weight:bold;""
                                ></p>
                                <div style=""width:240px; margin: auto;"">
                                    <img src=""images/D19.png"" style= ""width:200px""alt=""img"">
                                </div>
                            </div>","-146","","0","images/D19.png","","","","[""Coarse"",""Fine""]"
"","","","","","html-slider-response","48","271880","0.0-36.0","ywj7ufgx5d","NaN","<div style=""width:500px;"">
                                <p style=""font-size:50px; font-weight:bold;""
                                ></p>
                                <div style=""width:240px; margin: auto;"">
                                    <img src=""images/D8.png"" style= ""width:200px""alt=""img"">
                                </div>
                            </div>","109","","0","images/D8.png","","","","[""Coarse"",""Fine""]"
"","","","","","html-slider-response","49","273481","0.0-37.0","ywj7ufgx5d","NaN","<div style=""width:500px;"">
                                <p style=""font-size:50px; font-weight:bold;""
                                ></p>
                                <div style=""width:240px; margin: auto;"">
                                    <img src=""images/D26.png"" style= ""width:200px""alt=""img"">
                                </div>
                            </div>","124","","0","images/D26.png","","","","[""Coarse"",""Fine""]"
"","","","","","html-slider-response","50","274681","0.0-38.0","ywj7ufgx5d","NaN","<div style=""width:500px;"">
                                <p style=""font-size:50px; font-weight:bold;""
                                ></p>
                                <div style=""width:240px; margin: auto;"">
                                    <img src=""images/D49.png"" style= ""width:200px""alt=""img"">
                                </div>
                            </div>","125","","0","images/D49.png","","","","[""Coarse"",""Fine""]"
"","","","","","html-slider-response","51","276651","0.0-39.0","ywj7ufgx5d","NaN","<div style=""width:500px;"">
                                <p style=""font-size:50px; font-weight:bold;""
                                ></p>
                                <div style=""width:240px; margin: auto;"">
                                    <img src=""images/D55.png"" style= ""width:200px""alt=""img"">
                                </div>
                            </div>","-122","","0","images/D55.png","","","","[""Coarse"",""Fine""]"
"","","","","","html-slider-response","52","279099","0.0-40.0","ywj7ufgx5d","NaN","<div style=""width:500px;"">
                                <p style=""font-size:50px; font-weight:bold;""
                                ></p>
                                <div style=""width:240px; margin: auto;"">
                                    <img src=""images/D80.png"" style= ""width:200px""alt=""img"">
                                </div>
                            </div>","-133","","0","images/D80.png","","","","[""Coarse"",""Fine""]"
"","","","","","html-slider-response","53","281379","0.0-41.0","ywj7ufgx5d","NaN","<div style=""width:500px;"">
                                <p style=""font-size:50px; font-weight:bold;""
                                ></p>
                                <div style=""width:240px; margin: auto;"">
                                    <img src=""images/D74.png"" style= ""width:200px""alt=""img"">
                                </div>
                            </div>","-152","","0","images/D74.png","","","","[""Coarse"",""Fine""]"
"","","","","","html-slider-response","54","282563","0.0-42.0","ywj7ufgx5d","NaN","<div style=""width:500px;"">
                                <p style=""font-size:50px; font-weight:bold;""
                                ></p>
                                <div style=""width:240px; margin: auto;"">
                                    <img src=""images/D9.png"" style= ""width:200px""alt=""img"">
                                </div>
                            </div>","-152","","0","images/D9.png","","","","[""Coarse"",""Fine""]"
"","","","","","html-slider-response","55","283729","0.0-43.0","ywj7ufgx5d","NaN","<div style=""width:500px;"">
                                <p style=""font-size:50px; font-weight:bold;""
                                ></p>
                                <div style=""width:240px; margin: auto;"">
                                    <img src=""images/D57.png"" style= ""width:200px""alt=""img"">
                                </div>
                            </div>","-152","","0","images/D57.png","","","","[""Coarse"",""Fine""]"
"","","","","","html-slider-response","56","285746","0.0-44.0","ywj7ufgx5d","NaN","<div style=""width:500px;"">
                                <p style=""font-size:50px; font-weight:bold;""
                                ></p>
                                <div style=""width:240px; margin: auto;"">
                                    <img src=""images/D21.png"" style= ""width:200px""alt=""img"">
                                </div>
                            </div>","-153","","0","images/D21.png","","","","[""Coarse"",""Fine""]"
"","","","","","html-slider-response","57","287063","0.0-45.0","ywj7ufgx5d","NaN","<div style=""width:500px;"">
                                <p style=""font-size:50px; font-weight:bold;""
                                ></p>
                                <div style=""width:240px; margin: auto;"">
                                    <img src=""images/D104.png"" style= ""width:200px""alt=""img"">
                                </div>
                            </div>","-155","","0","images/D104.png","","","","[""Coarse"",""Fine""]"
"","","","","","html-slider-response","58","289029","0.0-46.0","ywj7ufgx5d","NaN","<div style=""width:500px;"">
                                <p style=""font-size:50px; font-weight:bold;""
                                ></p>
                                <div style=""width:240px; margin: auto;"">
                                    <img src=""images/D47.png"" style= ""width:200px""alt=""img"">
                                </div>
                            </div>","162","","0","images/D47.png","","","","[""Coarse"",""Fine""]"
"","","","","","html-slider-response","59","291132","0.0-47.0","ywj7ufgx5d","NaN","<div style=""width:500px;"">
                                <p style=""font-size:50px; font-weight:bold;""
                                ></p>
                                <div style=""width:240px; margin: auto;"">
                                    <img src=""images/D75.png"" style= ""width:200px""alt=""img"">
                                </div>
                            </div>","158","","0","images/D75.png","","","","[""Coarse"",""Fine""]"
"","","","","","html-slider-response","60","292330","0.0-48.0","ywj7ufgx5d","NaN","<div style=""width:500px;"">
                                <p style=""font-size:50px; font-weight:bold;""
                                ></p>
                                <div style=""width:240px; margin: auto;"">
                                    <img src=""images/D16.png"" style= ""width:200px""alt=""img"">
                                </div>
                            </div>","158","","0","images/D16.png","","","","[""Coarse"",""Fine""]"
"","","","","","html-slider-response","61","293496","0.0-49.0","ywj7ufgx5d","NaN","<div style=""width:500px;"">
                                <p style=""font-size:50px; font-weight:bold;""
                                ></p>
                                <div style=""width:240px; margin: auto;"">
                                    <img src=""images/D14.png"" style= ""width:200px""alt=""img"">
                                </div>
                            </div>","158","","0","images/D14.png","","","","[""Coarse"",""Fine""]"
"","","","","","html-slider-response","62","294929","0.0-50.0","ywj7ufgx5d","NaN","<div style=""width:500px;"">
                                <p style=""font-size:50px; font-weight:bold;""
                                ></p>
                                <div style=""width:240px; margin: auto;"">
                                    <img src=""images/D95.png"" style= ""width:200px""alt=""img"">
                                </div>
                            </div>","158","","0","images/D95.png","","","","[""Coarse"",""Fine""]"
"","","","","","html-slider-response","63","296795","0.0-51.0","ywj7ufgx5d","NaN","<div style=""width:500px;"">
                                <p style=""font-size:50px; font-weight:bold;""
                                ></p>
                                <div style=""width:240px; margin: auto;"">
                                    <img src=""images/D36.png"" style= ""width:200px""alt=""img"">
                                </div>
                            </div>","-150","","0","images/D36.png","","","","[""Coarse"",""Fine""]"
"","","","","","html-slider-response","64","297990","0.0-52.0","ywj7ufgx5d","NaN","<div style=""width:500px;"">
                                <p style=""font-size:50px; font-weight:bold;""
                                ></p>
                                <div style=""width:240px; margin: auto;"">
                                    <img src=""images/D53.png"" style= ""width:200px""alt=""img"">
                                </div>
                            </div>","-148","","0","images/D53.png","","","","[""Coarse"",""Fine""]"
"","","","","","html-slider-response","65","299130","0.0-53.0","ywj7ufgx5d","NaN","<div style=""width:500px;"">
                                <p style=""font-size:50px; font-weight:bold;""
                                ></p>
                                <div style=""width:240px; margin: auto;"">
                                    <img src=""images/D3.png"" style= ""width:200px""alt=""img"">
                                </div>
                            </div>","-148","","0","images/D3.png","","","","[""Coarse"",""Fine""]"
"","","","","","html-slider-response","66","300248","0.0-54.0","ywj7ufgx5d","NaN","<div style=""width:500px;"">
                                <p style=""font-size:50px; font-weight:bold;""
                                ></p>
                                <div style=""width:240px; margin: auto;"">
                                    <img src=""images/D84.png"" style= ""width:200px""alt=""img"">
                                </div>
                            </div>","-148","","0","images/D84.png","","","","[""Coarse"",""Fine""]"
"","","","","","html-slider-response","67","301346","0.0-55.0","ywj7ufgx5d","NaN","<div style=""width:500px;"">
                                <p style=""font-size:50px; font-weight:bold;""
                                ></p>
                                <div style=""width:240px; margin: auto;"">
                                    <img src=""images/D35.png"" style= ""width:200px""alt=""img"">
                                </div>
                            </div>","-148","","0","images/D35.png","","","","[""Coarse"",""Fine""]"
"","","","","","html-slider-response","68","303413","0.0-56.0","ywj7ufgx5d","NaN","<div style=""width:500px;"">
                                <p style=""font-size:50px; font-weight:bold;""
                                ></p>
                                <div style=""width:240px; margin: auto;"">
                                    <img src=""images/D6.png"" style= ""width:200px""alt=""img"">
                                </div>
                            </div>","-146","","0","images/D6.png","","","","[""Coarse"",""Fine""]"
"","","","","","html-slider-response","69","304613","0.0-57.0","ywj7ufgx5d","NaN","<div style=""width:500px;"">
                                <p style=""font-size:50px; font-weight:bold;""
                                ></p>
                                <div style=""width:240px; margin: auto;"">
                                    <img src=""images/D111.png"" style= ""width:200px""alt=""img"">
                                </div>
                            </div>","-146","","0","images/D111.png","","","","[""Coarse"",""Fine""]"
"","","","","","html-slider-response","70","306478","0.0-58.0","ywj7ufgx5d","NaN","<div style=""width:500px;"">
                                <p style=""font-size:50px; font-weight:bold;""
                                ></p>
                                <div style=""width:240px; margin: auto;"">
                                    <img src=""images/D105.png"" style= ""width:200px""alt=""img"">
                                </div>
                            </div>","148","","0","images/D105.png","","","","[""Coarse"",""Fine""]"
"","","","","","html-slider-response","71","307562","0.0-59.0","ywj7ufgx5d","NaN","<div style=""width:500px;"">
                                <p style=""font-size:50px; font-weight:bold;""
                                ></p>
                                <div style=""width:240px; margin: auto;"">
                                    <img src=""images/D79.png"" style= ""width:200px""alt=""img"">
                                </div>
                            </div>","127","","0","images/D79.png","","","","[""Coarse"",""Fine""]"
"","","","","","html-slider-response","72","308996","0.0-60.0","ywj7ufgx5d","NaN","<div style=""width:500px;"">
                                <p style=""font-size:50px; font-weight:bold;""
                                ></p>
                                <div style=""width:240px; margin: auto;"">
                                    <img src=""images/D102.png"" style= ""width:200px""alt=""img"">
                                </div>
                            </div>","132","","0","images/D102.png","","","","[""Coarse"",""Fine""]"
"","","","","","html-slider-response","73","310429","0.0-61.0","ywj7ufgx5d","NaN","<div style=""width:500px;"">
                                <p style=""font-size:50px; font-weight:bold;""
                                ></p>
                                <div style=""width:240px; margin: auto;"">
                                    <img src=""images/D64.png"" style= ""width:200px""alt=""img"">
                                </div>
                            </div>","133","","0","images/D64.png","","","","[""Coarse"",""Fine""]"
"","","","","","html-slider-response","74","312112","0.0-62.0","ywj7ufgx5d","NaN","<div style=""width:500px;"">
                                <p style=""font-size:50px; font-weight:bold;""
                                ></p>
                                <div style=""width:240px; margin: auto;"">
                                    <img src=""images/D96.png"" style= ""width:200px""alt=""img"">
                                </div>
                            </div>","132","","0","images/D96.png","","","","[""Coarse"",""Fine""]"
"","","","","","html-slider-response","75","313894","0.0-63.0","ywj7ufgx5d","NaN","<div style=""width:500px;"">
                                <p style=""font-size:50px; font-weight:bold;""
                                ></p>
                                <div style=""width:240px; margin: auto;"">
                                    <img src=""images/D34.png"" style= ""width:200px""alt=""img"">
                                </div>
                            </div>","133","","0","images/D34.png","","","","[""Coarse"",""Fine""]"
"","","","","","html-slider-response","76","315179","0.0-64.0","ywj7ufgx5d","NaN","<div style=""width:500px;"">
                                <p style=""font-size:50px; font-weight:bold;""
                                ></p>
                                <div style=""width:240px; margin: auto;"">
                                    <img src=""images/D1.png"" style= ""width:200px""alt=""img"">
                                </div>
                            </div>","133","","0","images/D1.png","","","","[""Coarse"",""Fine""]"
"","","","","","html-slider-response","77","317979","0.0-65.0","ywj7ufgx5d","NaN","<div style=""width:500px;"">
                                <p style=""font-size:50px; font-weight:bold;""
                                ></p>
                                <div style=""width:240px; margin: auto;"">
                                    <img src=""images/D22.png"" style= ""width:200px""alt=""img"">
                                </div>
                            </div>","-130","","0","images/D22.png","","","","[""Coarse"",""Fine""]"
"","","","","","html-slider-response","78","319079","0.0-66.0","ywj7ufgx5d","NaN","<div style=""width:500px;"">
                                <p style=""font-size:50px; font-weight:bold;""
                                ></p>
                                <div style=""width:240px; margin: auto;"">
                                    <img src=""images/D101.png"" style= ""width:200px""alt=""img"">
                                </div>
                            </div>","-128","","0","images/D101.png","","","","[""Coarse"",""Fine""]"
"","","","","","html-slider-response","79","320518","0.0-67.0","ywj7ufgx5d","NaN","<div style=""width:500px;"">
                                <p style=""font-size:50px; font-weight:bold;""
                                ></p>
                                <div style=""width:240px; margin: auto;"">
                                    <img src=""images/D17.png"" style= ""width:200px""alt=""img"">
                                </div>
                            </div>","-128","","0","images/D17.png","","","","[""Coarse"",""Fine""]"
"","","","","","html-slider-response","80","321648","0.0-68.0","ywj7ufgx5d","NaN","<div style=""width:500px;"">
                                <p style=""font-size:50px; font-weight:bold;""
                                ></p>
                                <div style=""width:240px; margin: auto;"">
                                    <img src=""images/D65.png"" style= ""width:200px""alt=""img"">
                                </div>
                            </div>","-128","","0","images/D65.png","","","","[""Coarse"",""Fine""]"
"","","","","","html-slider-response","81","322782","0.0-69.0","ywj7ufgx5d","NaN","<div style=""width:500px;"">
                                <p style=""font-size:50px; font-weight:bold;""
                                ></p>
                                <div style=""width:240px; margin: auto;"">
                                    <img src=""images/D66.png"" style= ""width:200px""alt=""img"">
                                </div>
                            </div>","-128","","0","images/D66.png","","","","[""Coarse"",""Fine""]"
"","","","","","html-slider-response","82","324015","0.0-70.0","ywj7ufgx5d","NaN","<div style=""width:500px;"">
                                <p style=""font-size:50px; font-weight:bold;""
                                ></p>
                                <div style=""width:240px; margin: auto;"">
                                    <img src=""images/D46.png"" style= ""width:200px""alt=""img"">
                                </div>
                            </div>","-128","","0","images/D46.png","","","","[""Coarse"",""Fine""]"
"","","","","","html-slider-response","83","325332","0.0-71.0","ywj7ufgx5d","NaN","<div style=""width:500px;"">
                                <p style=""font-size:50px; font-weight:bold;""
                                ></p>
                                <div style=""width:240px; margin: auto;"">
                                    <img src=""images/D52.png"" style= ""width:200px""alt=""img"">
                                </div>
                            </div>","-128","","0","images/D52.png","","","","[""Coarse"",""Fine""]"
"","","","","","html-slider-response","84","326696","0.0-72.0","ywj7ufgx5d","NaN","<div style=""width:500px;"">
                                <p style=""font-size:50px; font-weight:bold;""
                                ></p>
                                <div style=""width:240px; margin: auto;"">
                                    <img src=""images/D11.png"" style= ""width:200px""alt=""img"">
                                </div>
                            </div>","-128","","0","images/D11.png","","","","[""Coarse"",""Fine""]"
"","","","","","html-slider-response","85","328798","0.0-73.0","ywj7ufgx5d","NaN","<div style=""width:500px;"">
                                <p style=""font-size:50px; font-weight:bold;""
                                ></p>
                                <div style=""width:240px; margin: auto;"">
                                    <img src=""images/D48.png"" style= ""width:200px""alt=""img"">
                                </div>
                            </div>","119","","0","images/D48.png","","","","[""Coarse"",""Fine""]"
"","","","","","html-slider-response","86","329997","0.0-74.0","ywj7ufgx5d","NaN","<div style=""width:500px;"">
                                <p style=""font-size:50px; font-weight:bold;""
                                ></p>
                                <div style=""width:240px; margin: auto;"">
                                    <img src=""images/D83.png"" style= ""width:200px""alt=""img"">
                                </div>
                            </div>","120","","0","images/D83.png","","","","[""Coarse"",""Fine""]"
"","","","","","html-slider-response","87","331546","0.0-75.0","ywj7ufgx5d","NaN","<div style=""width:500px;"">
                                <p style=""font-size:50px; font-weight:bold;""
                                ></p>
                                <div style=""width:240px; margin: auto;"">
                                    <img src=""images/D87.png"" style= ""width:200px""alt=""img"">
                                </div>
                            </div>","-138","","0","images/D87.png","","","","[""Coarse"",""Fine""]"
"","","","","","html-button-response","88","334418","0.0-76.0","ywj7ufgx5d","2369","You have completed the first block of trials out of six. Please click 'Continue' when you are ready proceed.","0","","","","","","",""
"","","","","","html-button-response","89","336303","0.0-77.0","ywj7ufgx5d","1884","In the following trials, you will be asked to rate textures on the scale <b>Blobby</b> versus <b>Stripey</b>. Please click 'Continue' when you are ready proceed.","0","","","","","","",""
"","","","","","html-slider-response","90","338629","0.0-78.0","ywj7ufgx5d","NaN","<div style=""width:500px;"">
                                <p style=""font-size:50px; font-weight:bold;""
                                ></p>
                                <div style=""width:240px; margin: auto;"">
                                    <img src=""images/D103.png"" style= ""width:200px""alt=""img"">
                                </div>
                            </div>","-148","","0","images/D103.png","","","","[""Blobby"",""Stripey""]"
"","","","","","html-slider-response","91","342296","0.0-79.0","ywj7ufgx5d","NaN","<div style=""width:500px;"">
                                <p style=""font-size:50px; font-weight:bold;""
                                ></p>
                                <div style=""width:240px; margin: auto;"">
                                    <img src=""images/D56.png"" style= ""width:200px""alt=""img"">
                                </div>
                            </div>","-148","","0","images/D56.png","","","","[""Blobby"",""Stripey""]"
"","","","","","html-slider-response","92","343912","0.0-80.0","ywj7ufgx5d","NaN","<div style=""width:500px;"">
                                <p style=""font-size:50px; font-weight:bold;""
                                ></p>
                                <div style=""width:240px; margin: auto;"">
                                    <img src=""images/D77.png"" style= ""width:200px""alt=""img"">
                                </div>
                            </div>","-148","","0","images/D77.png","","","","[""Blobby"",""Stripey""]"
"","","","","","html-slider-response","93","345962","0.0-81.0","ywj7ufgx5d","NaN","<div style=""width:500px;"">
                                <p style=""font-size:50px; font-weight:bold;""
                                ></p>
                                <div style=""width:240px; margin: auto;"">
                                    <img src=""images/D85.png"" style= ""width:200px""alt=""img"">
                                </div>
                            </div>","131","","0","images/D85.png","","","","[""Blobby"",""Stripey""]"
"","","","","","html-slider-response","94","347277","0.0-82.0","ywj7ufgx5d","NaN","<div style=""width:500px;"">
                                <p style=""font-size:50px; font-weight:bold;""
                                ></p>
                                <div style=""width:240px; margin: auto;"">
                                    <img src=""images/D25.png"" style= ""width:200px""alt=""img"">
                                </div>
                            </div>","134","","0","images/D25.png","","","","[""Blobby"",""Stripey""]"
"","","","","","html-slider-response","95","348846","0.0-83.0","ywj7ufgx5d","NaN","<div style=""width:500px;"">
                                <p style=""font-size:50px; font-weight:bold;""
                                ></p>
                                <div style=""width:240px; margin: auto;"">
                                    <img src=""images/D4.png"" style= ""width:200px""alt=""img"">
                                </div>
                            </div>","-78","","0","images/D4.png","","","","[""Blobby"",""Stripey""]"
"","","","","","html-slider-response","96","351028","0.0-84.0","ywj7ufgx5d","NaN","<div style=""width:500px;"">
                                <p style=""font-size:50px; font-weight:bold;""
                                ></p>
                                <div style=""width:240px; margin: auto;"">
                                    <img src=""images/D20.png"" style= ""width:200px""alt=""img"">
                                </div>
                            </div>","114","","0","images/D20.png","","","","[""Blobby"",""Stripey""]"
"","","","","","html-slider-response","97","353212","0.0-85.0","ywj7ufgx5d","NaN","<div style=""width:500px;"">
                                <p style=""font-size:50px; font-weight:bold;""
                                ></p>
                                <div style=""width:240px; margin: auto;"">
                                    <img src=""images/D68.png"" style= ""width:200px""alt=""img"">
                                </div>
                            </div>","-134","","0","images/D68.png","","","","[""Blobby"",""Stripey""]"
"","","","","","html-slider-response","98","354896","0.0-86.0","ywj7ufgx5d","NaN","<div style=""width:500px;"">
                                <p style=""font-size:50px; font-weight:bold;""
                                ></p>
                                <div style=""width:240px; margin: auto;"">
                                    <img src=""images/D92.png"" style= ""width:200px""alt=""img"">
                                </div>
                            </div>","-148","","0","images/D92.png","","","","[""Blobby"",""Stripey""]"
"","","","","","html-slider-response","99","356816","0.0-87.0","ywj7ufgx5d","NaN","<div style=""width:500px;"">
                                <p style=""font-size:50px; font-weight:bold;""
                                ></p>
                                <div style=""width:240px; margin: auto;"">
                                    <img src=""images/D76.png"" style= ""width:200px""alt=""img"">
                                </div>
                            </div>","145","","0","images/D76.png","","","","[""Blobby"",""Stripey""]"
"","","","","","html-slider-response","100","358678","0.0-88.0","ywj7ufgx5d","NaN","<div style=""width:500px;"">
                                <p style=""font-size:50px; font-weight:bold;""
                                ></p>
                                <div style=""width:240px; margin: auto;"">
                                    <img src=""images/D32.png"" style= ""width:200px""alt=""img"">
                                </div>
                            </div>","-178","","0","images/D32.png","","","","[""Blobby"",""Stripey""]"
"","","","","","html-slider-response","101","360078","0.0-89.0","ywj7ufgx5d","NaN","<div style=""width:500px;"">
                                <p style=""font-size:50px; font-weight:bold;""
                                ></p>
                                <div style=""width:240px; margin: auto;"">
                                    <img src=""images/D82.png"" style= ""width:200px""alt=""img"">
                                </div>
                            </div>","-177","","0","images/D82.png","","","","[""Blobby"",""Stripey""]"
"","","","","","html-slider-response","102","361845","0.0-90.0","ywj7ufgx5d","NaN","<div style=""width:500px;"">
                                <p style=""font-size:50px; font-weight:bold;""
                                ></p>
                                <div style=""width:240px; margin: auto;"">
                                    <img src=""images/D94.png"" style= ""width:200px""alt=""img"">
                                </div>
                            </div>","162","","0","images/D94.png","","","","[""Blobby"",""Stripey""]"
"","","","","","html-slider-response","103","362998","0.0-91.0","ywj7ufgx5d","NaN","<div style=""width:500px;"">
                                <p style=""font-size:50px; font-weight:bold;""
                                ></p>
                                <div style=""width:240px; margin: auto;"">
                                    <img src=""images/D106.png"" style= ""width:200px""alt=""img"">
                                </div>
                            </div>","162","","0","images/D106.png","","","","[""Blobby"",""Stripey""]"
"","","","","","html-slider-response","104","365061","0.0-92.0","ywj7ufgx5d","NaN","<div style=""width:500px;"">
                                <p style=""font-size:50px; font-weight:bold;""
                                ></p>
                                <div style=""width:240px; margin: auto;"">
                                    <img src=""images/D24.png"" style= ""width:200px""alt=""img"">
                                </div>
                            </div>","-146","","0","images/D24.png","","","","[""Blobby"",""Stripey""]"
"","","","","","html-slider-response","105","366762","0.0-93.0","ywj7ufgx5d","NaN","<div style=""width:500px;"">
                                <p style=""font-size:50px; font-weight:bold;""
                                ></p>
                                <div style=""width:240px; margin: auto;"">
                                    <img src=""images/D78.png"" style= ""width:200px""alt=""img"">
                                </div>
                            </div>","162","","0","images/D78.png","","","","[""Blobby"",""Stripey""]"
"","","","","","html-slider-response","106","368128","0.0-94.0","ywj7ufgx5d","NaN","<div style=""width:500px;"">
                                <p style=""font-size:50px; font-weight:bold;""
                                ></p>
                                <div style=""width:240px; margin: auto;"">
                                    <img src=""images/D51.png"" style= ""width:200px""alt=""img"">
                                </div>
                            </div>","124","","0","images/D51.png","","","","[""Blobby"",""Stripey""]"
"","","","","","html-slider-response","107","370063","0.0-95.0","ywj7ufgx5d","NaN","<div style=""width:500px;"">
                                <p style=""font-size:50px; font-weight:bold;""
                                ></p>
                                <div style=""width:240px; margin: auto;"">
                                    <img src=""images/D18.png"" style= ""width:200px""alt=""img"">
                                </div>
                            </div>","133","","0","images/D18.png","","","","[""Blobby"",""Stripey""]"
"","","","","","html-slider-response","108","371795","0.0-96.0","ywj7ufgx5d","NaN","<div style=""width:500px;"">
                                <p style=""font-size:50px; font-weight:bold;""
                                ></p>
                                <div style=""width:240px; margin: auto;"">
                                    <img src=""images/D29.png"" style= ""width:200px""alt=""img"">
                                </div>
                            </div>","-146","","0","images/D29.png","","","","[""Blobby"",""Stripey""]"
"","","","","","html-slider-response","109","373777","0.0-97.0","ywj7ufgx5d","NaN","<div style=""width:500px;"">
                                <p style=""font-size:50px; font-weight:bold;""
                                ></p>
                                <div style=""width:240px; margin: auto;"">
                                    <img src=""images/D81.png"" style= ""width:200px""alt=""img"">
                                </div>
                            </div>","-140","","0","images/D81.png","","","","[""Blobby"",""Stripey""]"
"","","","","","html-slider-response","110","375895","0.0-98.0","ywj7ufgx5d","NaN","<div style=""width:500px;"">
                                <p style=""font-size:50px; font-weight:bold;""
                                ></p>
                                <div style=""width:240px; margin: auto;"">
                                    <img src=""images/D37.png"" style= ""width:200px""alt=""img"">
                                </div>
                            </div>","134","","0","images/D37.png","","","","[""Blobby"",""Stripey""]"
"","","","","","html-slider-response","111","378062","0.0-99.0","ywj7ufgx5d","NaN","<div style=""width:500px;"">
                                <p style=""font-size:50px; font-weight:bold;""
                                ></p>
                                <div style=""width:240px; margin: auto;"">
                                    <img src=""images/D19.png"" style= ""width:200px""alt=""img"">
                                </div>
                            </div>","-115","","0","images/D19.png","","","","[""Blobby"",""Stripey""]"
"","","","","","html-slider-response","112","379729","0.0-100.0","ywj7ufgx5d","NaN","<div style=""width:500px;"">
                                <p style=""font-size:50px; font-weight:bold;""
                                ></p>
                                <div style=""width:240px; margin: auto;"">
                                    <img src=""images/D8.png"" style= ""width:200px""alt=""img"">
                                </div>
                            </div>","-127","","0","images/D8.png","","","","[""Blobby"",""Stripey""]"
"","","","","","html-slider-response","113","382312","0.0-101.0","ywj7ufgx5d","NaN","<div style=""width:500px;"">
                                <p style=""font-size:50px; font-weight:bold;""
                                ></p>
                                <div style=""width:240px; margin: auto;"">
                                    <img src=""images/D26.png"" style= ""width:200px""alt=""img"">
                                </div>
                            </div>","172","","0","images/D26.png","","","","[""Blobby"",""Stripey""]"
"","","","","","html-slider-response","114","383847","0.0-102.0","ywj7ufgx5d","NaN","<div style=""width:500px;"">
                                <p style=""font-size:50px; font-weight:bold;""
                                ></p>
                                <div style=""width:240px; margin: auto;"">
                                    <img src=""images/D49.png"" style= ""width:200px""alt=""img"">
                                </div>
                            </div>","153","","0","images/D49.png","","","","[""Blobby"",""Stripey""]"
"","","","","","html-slider-response","115","386329","0.0-103.0","ywj7ufgx5d","NaN","<div style=""width:500px;"">
                                <p style=""font-size:50px; font-weight:bold;""
                                ></p>
                                <div style=""width:240px; margin: auto;"">
                                    <img src=""images/D55.png"" style= ""width:200px""alt=""img"">
                                </div>
                            </div>","-159","","0","images/D55.png","","","","[""Blobby"",""Stripey""]"
"","","","","","html-slider-response","116","387930","0.0-104.0","ywj7ufgx5d","NaN","<div style=""width:500px;"">
                                <p style=""font-size:50px; font-weight:bold;""
                                ></p>
                                <div style=""width:240px; margin: auto;"">
                                    <img src=""images/D80.png"" style= ""width:200px""alt=""img"">
                                </div>
                            </div>","-162","","0","images/D80.png","","","","[""Blobby"",""Stripey""]"
"","","","","","html-slider-response","117","389780","0.0-105.0","ywj7ufgx5d","NaN","<div style=""width:500px;"">
                                <p style=""font-size:50px; font-weight:bold;""
                                ></p>
                                <div style=""width:240px; margin: auto;"">
                                    <img src=""images/D74.png"" style= ""width:200px""alt=""img"">
                                </div>
                            </div>","-170","","0","images/D74.png","","","","[""Blobby"",""Stripey""]"
"","","","","","html-slider-response","118","391413","0.0-106.0","ywj7ufgx5d","NaN","<div style=""width:500px;"">
                                <p style=""font-size:50px; font-weight:bold;""
                                ></p>
                                <div style=""width:240px; margin: auto;"">
                                    <img src=""images/D9.png"" style= ""width:200px""alt=""img"">
                                </div>
                            </div>","-170","","0","images/D9.png","","","","[""Blobby"",""Stripey""]"
"","","","","","html-slider-response","119","392701","0.0-107.0","ywj7ufgx5d","NaN","<div style=""width:500px;"">
                                <p style=""font-size:50px; font-weight:bold;""
                                ></p>
                                <div style=""width:240px; margin: auto;"">
                                    <img src=""images/D57.png"" style= ""width:200px""alt=""img"">
                                </div>
                            </div>","-170","","0","images/D57.png","","","","[""Blobby"",""Stripey""]"
"","","","","","html-slider-response","120","394808","0.0-108.0","ywj7ufgx5d","NaN","<div style=""width:500px;"">
                                <p style=""font-size:50px; font-weight:bold;""
                                ></p>
                                <div style=""width:240px; margin: auto;"">
                                    <img src=""images/D21.png"" style= ""width:200px""alt=""img"">
                                </div>
                            </div>","-149","","0","images/D21.png","","","","[""Blobby"",""Stripey""]"
"","","","","","html-slider-response","121","396233","0.0-109.0","ywj7ufgx5d","NaN","<div style=""width:500px;"">
                                <p style=""font-size:50px; font-weight:bold;""
                                ></p>
                                <div style=""width:240px; margin: auto;"">
                                    <img src=""images/D104.png"" style= ""width:200px""alt=""img"">
                                </div>
                            </div>","-158","","0","images/D104.png","","","","[""Blobby"",""Stripey""]"
"","","","","","html-slider-response","122","398361","0.0-110.0","ywj7ufgx5d","NaN","<div style=""width:500px;"">
                                <p style=""font-size:50px; font-weight:bold;""
                                ></p>
                                <div style=""width:240px; margin: auto;"">
                                    <img src=""images/D47.png"" style= ""width:200px""alt=""img"">
                                </div>
                            </div>","148","","0","images/D47.png","","","","[""Blobby"",""Stripey""]"
"","","","","","html-slider-response","123","400962","0.0-111.0","ywj7ufgx5d","NaN","<div style=""width:500px;"">
                                <p style=""font-size:50px; font-weight:bold;""
                                ></p>
                                <div style=""width:240px; margin: auto;"">
                                    <img src=""images/D75.png"" style= ""width:200px""alt=""img"">
                                </div>
                            </div>","-177","","0","images/D75.png","","","","[""Blobby"",""Stripey""]"
"","","","","","html-slider-response","124","404944","0.0-112.0","ywj7ufgx5d","NaN","<div style=""width:500px;"">
                                <p style=""font-size:50px; font-weight:bold;""
                                ></p>
                                <div style=""width:240px; margin: auto;"">
                                    <img src=""images/D16.png"" style= ""width:200px""alt=""img"">
                                </div>
                            </div>","147","","0","images/D16.png","","","","[""Blobby"",""Stripey""]"
"","","","","","html-slider-response","125","406463","0.0-113.0","ywj7ufgx5d","NaN","<div style=""width:500px;"">
                                <p style=""font-size:50px; font-weight:bold;""
                                ></p>
                                <div style=""width:240px; margin: auto;"">
                                    <img src=""images/D14.png"" style= ""width:200px""alt=""img"">
                                </div>
                            </div>","147","","0","images/D14.png","","","","[""Blobby"",""Stripey""]"
"","","","","","html-slider-response","126","408080","0.0-114.0","ywj7ufgx5d","NaN","<div style=""width:500px;"">
                                <p style=""font-size:50px; font-weight:bold;""
                                ></p>
                                <div style=""width:240px; margin: auto;"">
                                    <img src=""images/D95.png"" style= ""width:200px""alt=""img"">
                                </div>
                            </div>","157","","0","images/D95.png","","","","[""Blobby"",""Stripey""]"
"","","","","","html-slider-response","127","409861","0.0-115.0","ywj7ufgx5d","NaN","<div style=""width:500px;"">
                                <p style=""font-size:50px; font-weight:bold;""
                                ></p>
                                <div style=""width:240px; margin: auto;"">
                                    <img src=""images/D36.png"" style= ""width:200px""alt=""img"">
                                </div>
                            </div>","-173","","0","images/D36.png","","","","[""Blobby"",""Stripey""]"
"","","","","","html-slider-response","128","411061","0.0-116.0","ywj7ufgx5d","NaN","<div style=""width:500px;"">
                                <p style=""font-size:50px; font-weight:bold;""
                                ></p>
                                <div style=""width:240px; margin: auto;"">
                                    <img src=""images/D53.png"" style= ""width:200px""alt=""img"">
                                </div>
                            </div>","-170","","0","images/D53.png","","","","[""Blobby"",""Stripey""]"
"","","","","","html-slider-response","129","412115","0.0-117.0","ywj7ufgx5d","NaN","<div style=""width:500px;"">
                                <p style=""font-size:50px; font-weight:bold;""
                                ></p>
                                <div style=""width:240px; margin: auto;"">
                                    <img src=""images/D3.png"" style= ""width:200px""alt=""img"">
                                </div>
                            </div>","-166","","0","images/D3.png","","","","[""Blobby"",""Stripey""]"
"","","","","","html-slider-response","130","413199","0.0-118.0","ywj7ufgx5d","NaN","<div style=""width:500px;"">
                                <p style=""font-size:50px; font-weight:bold;""
                                ></p>
                                <div style=""width:240px; margin: auto;"">
                                    <img src=""images/D84.png"" style= ""width:200px""alt=""img"">
                                </div>
                            </div>","-166","","0","images/D84.png","","","","[""Blobby"",""Stripey""]"
"","","","","","html-slider-response","131","414229","0.0-119.0","ywj7ufgx5d","NaN","<div style=""width:500px;"">
                                <p style=""font-size:50px; font-weight:bold;""
                                ></p>
                                <div style=""width:240px; margin: auto;"">
                                    <img src=""images/D35.png"" style= ""width:200px""alt=""img"">
                                </div>
                            </div>","-163","","0","images/D35.png","","","","[""Blobby"",""Stripey""]"
"","","","","","html-slider-response","132","415578","0.0-120.0","ywj7ufgx5d","NaN","<div style=""width:500px;"">
                                <p style=""font-size:50px; font-weight:bold;""
                                ></p>
                                <div style=""width:240px; margin: auto;"">
                                    <img src=""images/D6.png"" style= ""width:200px""alt=""img"">
                                </div>
                            </div>","-163","","0","images/D6.png","","","","[""Blobby"",""Stripey""]"
"","","","","","html-slider-response","133","416813","0.0-121.0","ywj7ufgx5d","NaN","<div style=""width:500px;"">
                                <p style=""font-size:50px; font-weight:bold;""
                                ></p>
                                <div style=""width:240px; margin: auto;"">
                                    <img src=""images/D111.png"" style= ""width:200px""alt=""img"">
                                </div>
                            </div>","-163","","0","images/D111.png","","","","[""Blobby"",""Stripey""]"
"","","","","","html-slider-response","134","418595","0.0-122.0","ywj7ufgx5d","NaN","<div style=""width:500px;"">
                                <p style=""font-size:50px; font-weight:bold;""
                                ></p>
                                <div style=""width:240px; margin: auto;"">
                                    <img src=""images/D105.png"" style= ""width:200px""alt=""img"">
                                </div>
                            </div>","171","","0","images/D105.png","","","","[""Blobby"",""Stripey""]"
"","","","","","html-slider-response","135","420728","0.0-123.0","ywj7ufgx5d","NaN","<div style=""width:500px;"">
                                <p style=""font-size:50px; font-weight:bold;""
                                ></p>
                                <div style=""width:240px; margin: auto;"">
                                    <img src=""images/D79.png"" style= ""width:200px""alt=""img"">
                                </div>
                            </div>","174","","0","images/D79.png","","","","[""Blobby"",""Stripey""]"
"","","","","","html-slider-response","136","423531","0.0-124.0","ywj7ufgx5d","NaN","<div style=""width:500px;"">
                                <p style=""font-size:50px; font-weight:bold;""
                                ></p>
                                <div style=""width:240px; margin: auto;"">
                                    <img src=""images/D102.png"" style= ""width:200px""alt=""img"">
                                </div>
                            </div>","184","","0","images/D102.png","","","","[""Blobby"",""Stripey""]"
"","","","","","html-slider-response","137","425144","0.0-125.0","ywj7ufgx5d","NaN","<div style=""width:500px;"">
                                <p style=""font-size:50px; font-weight:bold;""
                                ></p>
                                <div style=""width:240px; margin: auto;"">
                                    <img src=""images/D64.png"" style= ""width:200px""alt=""img"">
                                </div>
                            </div>","182","","0","images/D64.png","","","","[""Blobby"",""Stripey""]"
"","","","","","html-slider-response","138","426511","0.0-126.0","ywj7ufgx5d","NaN","<div style=""width:500px;"">
                                <p style=""font-size:50px; font-weight:bold;""
                                ></p>
                                <div style=""width:240px; margin: auto;"">
                                    <img src=""images/D96.png"" style= ""width:200px""alt=""img"">
                                </div>
                            </div>","182","","0","images/D96.png","","","","[""Blobby"",""Stripey""]"
"","","","","","html-slider-response","139","428311","0.0-127.0","ywj7ufgx5d","NaN","<div style=""width:500px;"">
                                <p style=""font-size:50px; font-weight:bold;""
                                ></p>
                                <div style=""width:240px; margin: auto;"">
                                    <img src=""images/D34.png"" style= ""width:200px""alt=""img"">
                                </div>
                            </div>","-162","","0","images/D34.png","","","","[""Blobby"",""Stripey""]"
"","","","","","html-slider-response","140","429911","0.0-128.0","ywj7ufgx5d","NaN","<div style=""width:500px;"">
                                <p style=""font-size:50px; font-weight:bold;""
                                ></p>
                                <div style=""width:240px; margin: auto;"">
                                    <img src=""images/D1.png"" style= ""width:200px""alt=""img"">
                                </div>
                            </div>","186","","0","images/D1.png","","","","[""Blobby"",""Stripey""]"
"","","","","","html-slider-response","141","431761","0.0-129.0","ywj7ufgx5d","NaN","<div style=""width:500px;"">
                                <p style=""font-size:50px; font-weight:bold;""
                                ></p>
                                <div style=""width:240px; margin: auto;"">
                                    <img src=""images/D22.png"" style= ""width:200px""alt=""img"">
                                </div>
                            </div>","-185","","0","images/D22.png","","","","[""Blobby"",""Stripey""]"
"","","","","","html-slider-response","142","433044","0.0-130.0","ywj7ufgx5d","NaN","<div style=""width:500px;"">
                                <p style=""font-size:50px; font-weight:bold;""
                                ></p>
                                <div style=""width:240px; margin: auto;"">
                                    <img src=""images/D101.png"" style= ""width:200px""alt=""img"">
                                </div>
                            </div>","-175","","0","images/D101.png","","","","[""Blobby"",""Stripey""]"
"","","","","","html-slider-response","143","434250","0.0-131.0","ywj7ufgx5d","NaN","<div style=""width:500px;"">
                                <p style=""font-size:50px; font-weight:bold;""
                                ></p>
                                <div style=""width:240px; margin: auto;"">
                                    <img src=""images/D17.png"" style= ""width:200px""alt=""img"">
                                </div>
                            </div>","-174","","0","images/D17.png","","","","[""Blobby"",""Stripey""]"
"","","","","","html-slider-response","144","436096","0.0-132.0","ywj7ufgx5d","NaN","<div style=""width:500px;"">
                                <p style=""font-size:50px; font-weight:bold;""
                                ></p>
                                <div style=""width:240px; margin: auto;"">
                                    <img src=""images/D65.png"" style= ""width:200px""alt=""img"">
                                </div>
                            </div>","188","","0","images/D65.png","","","","[""Blobby"",""Stripey""]"
"","","","","","html-slider-response","145","437945","0.0-133.0","ywj7ufgx5d","NaN","<div style=""width:500px;"">
                                <p style=""font-size:50px; font-weight:bold;""
                                ></p>
                                <div style=""width:240px; margin: auto;"">
                                    <img src=""images/D66.png"" style= ""width:200px""alt=""img"">
                                </div>
                            </div>","-178","","0","images/D66.png","","","","[""Blobby"",""Stripey""]"
"","","","","","html-slider-response","146","441279","0.0-134.0","ywj7ufgx5d","NaN","<div style=""width:500px;"">
                                <p style=""font-size:50px; font-weight:bold;""
                                ></p>
                                <div style=""width:240px; margin: auto;"">
                                    <img src=""images/D46.png"" style= ""width:200px""alt=""img"">
                                </div>
                            </div>","154","","0","images/D46.png","","","","[""Blobby"",""Stripey""]"
"","","","","","html-slider-response","147","443045","0.0-135.0","ywj7ufgx5d","NaN","<div style=""width:500px;"">
                                <p style=""font-size:50px; font-weight:bold;""
                                ></p>
                                <div style=""width:240px; margin: auto;"">
                                    <img src=""images/D52.png"" style= ""width:200px""alt=""img"">
                                </div>
                            </div>","-164","","0","images/D52.png","","","","[""Blobby"",""Stripey""]"
"","","","","","html-slider-response","148","444512","0.0-136.0","ywj7ufgx5d","NaN","<div style=""width:500px;"">
                                <p style=""font-size:50px; font-weight:bold;""
                                ></p>
                                <div style=""width:240px; margin: auto;"">
                                    <img src=""images/D11.png"" style= ""width:200px""alt=""img"">
                                </div>
                            </div>","177","","0","images/D11.png","","","","[""Blobby"",""Stripey""]"
"","","","","","html-slider-response","149","446011","0.0-137.0","ywj7ufgx5d","NaN","<div style=""width:500px;"">
                                <p style=""font-size:50px; font-weight:bold;""
                                ></p>
                                <div style=""width:240px; margin: auto;"">
                                    <img src=""images/D48.png"" style= ""width:200px""alt=""img"">
                                </div>
                            </div>","172","","0","images/D48.png","","","","[""Blobby"",""Stripey""]"
"","","","","","html-slider-response","150","447564","0.0-138.0","ywj7ufgx5d","NaN","<div style=""width:500px;"">
                                <p style=""font-size:50px; font-weight:bold;""
                                ></p>
                                <div style=""width:240px; margin: auto;"">
                                    <img src=""images/D83.png"" style= ""width:200px""alt=""img"">
                                </div>
                            </div>","166","","0","images/D83.png","","","","[""Blobby"",""Stripey""]"
"","","","","","html-slider-response","151","449478","0.0-139.0","ywj7ufgx5d","NaN","<div style=""width:500px;"">
                                <p style=""font-size:50px; font-weight:bold;""
                                ></p>
                                <div style=""width:240px; margin: auto;"">
                                    <img src=""images/D87.png"" style= ""width:200px""alt=""img"">
                                </div>
                            </div>","-161","","0","images/D87.png","","","","[""Blobby"",""Stripey""]"
"","","","","","html-button-response","152","456500","0.0-140.0","ywj7ufgx5d","6519","You have completed the second block of trials out of six. Please click 'Continue' when you are ready proceed.","0","","","","","","",""
"","","","","","html-button-response","153","458500","0.0-141.0","ywj7ufgx5d","2000","In the following trials, you will be asked to rate textures on the scale <b>Rough</b> versus <b>Smooth</b>. Please click 'Continue' when you are ready proceed.","0","","","","","","",""
"","","","","","html-slider-response","154","463162","0.0-142.0","ywj7ufgx5d","NaN","<div style=""width:500px;"">
                                <p style=""font-size:50px; font-weight:bold;""
                                ></p>
                                <div style=""width:240px; margin: auto;"">
                                    <img src=""images/D36.png"" style= ""width:200px""alt=""img"">
                                </div>
                            </div>","-174","","0","images/D36.png","","","","[""Rough"",""Smooth""]"
"","","","","","html-slider-response","155","464932","0.0-143.0","ywj7ufgx5d","NaN","<div style=""width:500px;"">
                                <p style=""font-size:50px; font-weight:bold;""
                                ></p>
                                <div style=""width:240px; margin: auto;"">
                                    <img src=""images/D104.png"" style= ""width:200px""alt=""img"">
                                </div>
                            </div>","-175","","0","images/D104.png","","","","[""Rough"",""Smooth""]"
"","","","","","html-slider-response","156","466510","0.0-144.0","ywj7ufgx5d","NaN","<div style=""width:500px;"">
                                <p style=""font-size:50px; font-weight:bold;""
                                ></p>
                                <div style=""width:240px; margin: auto;"">
                                    <img src=""images/D16.png"" style= ""width:200px""alt=""img"">
                                </div>
                            </div>","144","","0","images/D16.png","","","","[""Rough"",""Smooth""]"
"","","","","","html-slider-response","157","467945","0.0-145.0","ywj7ufgx5d","NaN","<div style=""width:500px;"">
                                <p style=""font-size:50px; font-weight:bold;""
                                ></p>
                                <div style=""width:240px; margin: auto;"">
                                    <img src=""images/D105.png"" style= ""width:200px""alt=""img"">
                                </div>
                            </div>","149","","0","images/D105.png","","","","[""Rough"",""Smooth""]"
"","","","","","html-slider-response","158","469411","0.0-146.0","ywj7ufgx5d","NaN","<div style=""width:500px;"">
                                <p style=""font-size:50px; font-weight:bold;""
                                ></p>
                                <div style=""width:240px; margin: auto;"">
                                    <img src=""images/D49.png"" style= ""width:200px""alt=""img"">
                                </div>
                            </div>","152","","0","images/D49.png","","","","[""Rough"",""Smooth""]"
"","","","","","html-slider-response","159","471401","0.0-147.0","ywj7ufgx5d","NaN","<div style=""width:500px;"">
                                <p style=""font-size:50px; font-weight:bold;""
                                ></p>
                                <div style=""width:240px; margin: auto;"">
                                    <img src=""images/D80.png"" style= ""width:200px""alt=""img"">
                                </div>
                            </div>","-165","","0","images/D80.png","","","","[""Rough"",""Smooth""]"
"","","","","","html-slider-response","160","473264","0.0-148.0","ywj7ufgx5d","NaN","<div style=""width:500px;"">
                                <p style=""font-size:50px; font-weight:bold;""
                                ></p>
                                <div style=""width:240px; margin: auto;"">
                                    <img src=""images/D101.png"" style= ""width:200px""alt=""img"">
                                </div>
                            </div>","171","","0","images/D101.png","","","","[""Rough"",""Smooth""]"
"","","","","","html-slider-response","161","474595","0.0-149.0","ywj7ufgx5d","NaN","<div style=""width:500px;"">
                                <p style=""font-size:50px; font-weight:bold;""
                                ></p>
                                <div style=""width:240px; margin: auto;"">
                                    <img src=""images/D47.png"" style= ""width:200px""alt=""img"">
                                </div>
                            </div>","171","","0","images/D47.png","","","","[""Rough"",""Smooth""]"
"","","","","","html-slider-response","162","476644","0.0-150.0","ywj7ufgx5d","NaN","<div style=""width:500px;"">
                                <p style=""font-size:50px; font-weight:bold;""
                                ></p>
                                <div style=""width:240px; margin: auto;"">
                                    <img src=""images/D11.png"" style= ""width:200px""alt=""img"">
                                </div>
                            </div>","126","","0","images/D11.png","","","","[""Rough"",""Smooth""]"
"","","","","","html-slider-response","163","478711","0.0-151.0","ywj7ufgx5d","NaN","<div style=""width:500px;"">
                                <p style=""font-size:50px; font-weight:bold;""
                                ></p>
                                <div style=""width:240px; margin: auto;"">
                                    <img src=""images/D14.png"" style= ""width:200px""alt=""img"">
                                </div>
                            </div>","162","","0","images/D14.png","","","","[""Rough"",""Smooth""]"
"","","","","","html-slider-response","164","479828","0.0-152.0","ywj7ufgx5d","NaN","<div style=""width:500px;"">
                                <p style=""font-size:50px; font-weight:bold;""
                                ></p>
                                <div style=""width:240px; margin: auto;"">
                                    <img src=""images/D52.png"" style= ""width:200px""alt=""img"">
                                </div>
                            </div>","162","","0","images/D52.png","","","","[""Rough"",""Smooth""]"
"","","","","","html-slider-response","165","481561","0.0-153.0","ywj7ufgx5d","NaN","<div style=""width:500px;"">
                                <p style=""font-size:50px; font-weight:bold;""
                                ></p>
                                <div style=""width:240px; margin: auto;"">
                                    <img src=""images/D1.png"" style= ""width:200px""alt=""img"">
                                </div>
                            </div>","-162","","0","images/D1.png","","","","[""Rough"",""Smooth""]"
"","","","","","html-slider-response","166","482896","0.0-154.0","ywj7ufgx5d","NaN","<div style=""width:500px;"">
                                <p style=""font-size:50px; font-weight:bold;""
                                ></p>
                                <div style=""width:240px; margin: auto;"">
                                    <img src=""images/D94.png"" style= ""width:200px""alt=""img"">
                                </div>
                            </div>","-159","","0","images/D94.png","","","","[""Rough"",""Smooth""]"
"","","","","","html-slider-response","167","484878","0.0-155.0","ywj7ufgx5d","NaN","<div style=""width:500px;"">
                                <p style=""font-size:50px; font-weight:bold;""
                                ></p>
                                <div style=""width:240px; margin: auto;"">
                                    <img src=""images/D111.png"" style= ""width:200px""alt=""img"">
                                </div>
                            </div>","-157","","0","images/D111.png","","","","[""Rough"",""Smooth""]"
"","","","","","html-slider-response","168","486827","0.0-156.0","ywj7ufgx5d","NaN","<div style=""width:500px;"">
                                <p style=""font-size:50px; font-weight:bold;""
                                ></p>
                                <div style=""width:240px; margin: auto;"">
                                    <img src=""images/D4.png"" style= ""width:200px""alt=""img"">
                                </div>
                            </div>","146","","0","images/D4.png","","","","[""Rough"",""Smooth""]"
"","","","","","html-slider-response","169","488046","0.0-157.0","ywj7ufgx5d","NaN","<div style=""width:500px;"">
                                <p style=""font-size:50px; font-weight:bold;""
                                ></p>
                                <div style=""width:240px; margin: auto;"">
                                    <img src=""images/D103.png"" style= ""width:200px""alt=""img"">
                                </div>
                            </div>","154","","0","images/D103.png","","","","[""Rough"",""Smooth""]"
"","","","","","html-slider-response","170","489100","0.0-158.0","ywj7ufgx5d","NaN","<div style=""width:500px;"">
                                <p style=""font-size:50px; font-weight:bold;""
                                ></p>
                                <div style=""width:240px; margin: auto;"">
                                    <img src=""images/D78.png"" style= ""width:200px""alt=""img"">
                                </div>
                            </div>","162","","0","images/D78.png","","","","[""Rough"",""Smooth""]"
"","","","","","html-slider-response","171","491027","0.0-159.0","ywj7ufgx5d","NaN","<div style=""width:500px;"">
                                <p style=""font-size:50px; font-weight:bold;""
                                ></p>
                                <div style=""width:240px; margin: auto;"">
                                    <img src=""images/D95.png"" style= ""width:200px""alt=""img"">
                                </div>
                            </div>","-200","","0","images/D95.png","","","","[""Rough"",""Smooth""]"
"","","","","","html-slider-response","172","492496","0.0-160.0","ywj7ufgx5d","NaN","<div style=""width:500px;"">
                                <p style=""font-size:50px; font-weight:bold;""
                                ></p>
                                <div style=""width:240px; margin: auto;"">
                                    <img src=""images/D53.png"" style= ""width:200px""alt=""img"">
                                </div>
                            </div>","180","","0","images/D53.png","","","","[""Rough"",""Smooth""]"
"","","","","","html-slider-response","173","494678","0.0-161.0","ywj7ufgx5d","NaN","<div style=""width:500px;"">
                                <p style=""font-size:50px; font-weight:bold;""
                                ></p>
                                <div style=""width:240px; margin: auto;"">
                                    <img src=""images/D32.png"" style= ""width:200px""alt=""img"">
                                </div>
                            </div>","180","","0","images/D32.png","","","","[""Rough"",""Smooth""]"
"","","","","","html-slider-response","174","497178","0.0-162.0","ywj7ufgx5d","NaN","<div style=""width:500px;"">
                                <p style=""font-size:50px; font-weight:bold;""
                                ></p>
                                <div style=""width:240px; margin: auto;"">
                                    <img src=""images/D85.png"" style= ""width:200px""alt=""img"">
                                </div>
                            </div>","176","","0","images/D85.png","","","","[""Rough"",""Smooth""]"
"","","","","","html-slider-response","175","498427","0.0-163.0","ywj7ufgx5d","NaN","<div style=""width:500px;"">
                                <p style=""font-size:50px; font-weight:bold;""
                                ></p>
                                <div style=""width:240px; margin: auto;"">
                                    <img src=""images/D79.png"" style= ""width:200px""alt=""img"">
                                </div>
                            </div>","176","","0","images/D79.png","","","","[""Rough"",""Smooth""]"
"","","","","","html-slider-response","176","499795","0.0-164.0","ywj7ufgx5d","NaN","<div style=""width:500px;"">
                                <p style=""font-size:50px; font-weight:bold;""
                                ></p>
                                <div style=""width:240px; margin: auto;"">
                                    <img src=""images/D8.png"" style= ""width:200px""alt=""img"">
                                </div>
                            </div>","175","","0","images/D8.png","","","","[""Rough"",""Smooth""]"
"","","","","","html-slider-response","177","502144","0.0-165.0","ywj7ufgx5d","NaN","<div style=""width:500px;"">
                                <p style=""font-size:50px; font-weight:bold;""
                                ></p>
                                <div style=""width:240px; margin: auto;"">
                                    <img src=""images/D65.png"" style= ""width:200px""alt=""img"">
                                </div>
                            </div>","-181","","0","images/D65.png","","","","[""Rough"",""Smooth""]"
"","","","","","html-slider-response","178","504211","0.0-166.0","ywj7ufgx5d","NaN","<div style=""width:500px;"">
                                <p style=""font-size:50px; font-weight:bold;""
                                ></p>
                                <div style=""width:240px; margin: auto;"">
                                    <img src=""images/D57.png"" style= ""width:200px""alt=""img"">
                                </div>
                            </div>","174","","0","images/D57.png","","","","[""Rough"",""Smooth""]"
"","","","","","html-slider-response","179","505662","0.0-167.0","ywj7ufgx5d","NaN","<div style=""width:500px;"">
                                <p style=""font-size:50px; font-weight:bold;""
                                ></p>
                                <div style=""width:240px; margin: auto;"">
                                    <img src=""images/D87.png"" style= ""width:200px""alt=""img"">
                                </div>
                            </div>","173","","0","images/D87.png","","","","[""Rough"",""Smooth""]"
"","","","","","html-slider-response","180","508364","0.0-168.0","ywj7ufgx5d","NaN","<div style=""width:500px;"">
                                <p style=""font-size:50px; font-weight:bold;""
                                ></p>
                                <div style=""width:240px; margin: auto;"">
                                    <img src=""images/D83.png"" style= ""width:200px""alt=""img"">
                                </div>
                            </div>","166","","0","images/D83.png","","","","[""Rough"",""Smooth""]"
"","","","","","html-slider-response","181","509794","0.0-169.0","ywj7ufgx5d","NaN","<div style=""width:500px;"">
                                <p style=""font-size:50px; font-weight:bold;""
                                ></p>
                                <div style=""width:240px; margin: auto;"">
                                    <img src=""images/D102.png"" style= ""width:200px""alt=""img"">
                                </div>
                            </div>","165","","0","images/D102.png","","","","[""Rough"",""Smooth""]"
"","","","","","html-slider-response","182","511080","0.0-170.0","ywj7ufgx5d","NaN","<div style=""width:500px;"">
                                <p style=""font-size:50px; font-weight:bold;""
                                ></p>
                                <div style=""width:240px; margin: auto;"">
                                    <img src=""images/D76.png"" style= ""width:200px""alt=""img"">
                                </div>
                            </div>","165","","0","images/D76.png","","","","[""Rough"",""Smooth""]"
"","","","","","html-slider-response","183","512328","0.0-171.0","ywj7ufgx5d","NaN","<div style=""width:500px;"">
                                <p style=""font-size:50px; font-weight:bold;""
                                ></p>
                                <div style=""width:240px; margin: auto;"">
                                    <img src=""images/D21.png"" style= ""width:200px""alt=""img"">
                                </div>
                            </div>","165","","0","images/D21.png","","","","[""Rough"",""Smooth""]"
"","","","","","html-slider-response","184","515061","0.0-172.0","ywj7ufgx5d","NaN","<div style=""width:500px;"">
                                <p style=""font-size:50px; font-weight:bold;""
                                ></p>
                                <div style=""width:240px; margin: auto;"">
                                    <img src=""images/D64.png"" style= ""width:200px""alt=""img"">
                                </div>
                            </div>","-186","","0","images/D64.png","","","","[""Rough"",""Smooth""]"
"","","","","","html-slider-response","185","517194","0.0-173.0","ywj7ufgx5d","NaN","<div style=""width:500px;"">
                                <p style=""font-size:50px; font-weight:bold;""
                                ></p>
                                <div style=""width:240px; margin: auto;"">
                                    <img src=""images/D34.png"" style= ""width:200px""alt=""img"">
                                </div>
                            </div>","178","","0","images/D34.png","","","","[""Rough"",""Smooth""]"
"","","","","","html-slider-response","186","519178","0.0-174.0","ywj7ufgx5d","NaN","<div style=""width:500px;"">
                                <p style=""font-size:50px; font-weight:bold;""
                                ></p>
                                <div style=""width:240px; margin: auto;"">
                                    <img src=""images/D29.png"" style= ""width:200px""alt=""img"">
                                </div>
                            </div>","-187","","0","images/D29.png","","","","[""Rough"",""Smooth""]"
"","","","","","html-slider-response","187","521030","0.0-175.0","ywj7ufgx5d","NaN","<div style=""width:500px;"">
                                <p style=""font-size:50px; font-weight:bold;""
                                ></p>
                                <div style=""width:240px; margin: auto;"">
                                    <img src=""images/D25.png"" style= ""width:200px""alt=""img"">
                                </div>
                            </div>","-184","","0","images/D25.png","","","","[""Rough"",""Smooth""]"
"","","","","","html-slider-response","188","523311","0.0-176.0","ywj7ufgx5d","NaN","<div style=""width:500px;"">
                                <p style=""font-size:50px; font-weight:bold;""
                                ></p>
                                <div style=""width:240px; margin: auto;"">
                                    <img src=""images/D22.png"" style= ""width:200px""alt=""img"">
                                </div>
                            </div>","-185","","0","images/D22.png","","","","[""Rough"",""Smooth""]"
"","","","","","html-slider-response","189","525161","0.0-177.0","ywj7ufgx5d","NaN","<div style=""width:500px;"">
                                <p style=""font-size:50px; font-weight:bold;""
                                ></p>
                                <div style=""width:240px; margin: auto;"">
                                    <img src=""images/D68.png"" style= ""width:200px""alt=""img"">
                                </div>
                            </div>","177","","0","images/D68.png","","","","[""Rough"",""Smooth""]"
"","","","","","html-slider-response","190","526794","0.0-178.0","ywj7ufgx5d","NaN","<div style=""width:500px;"">
                                <p style=""font-size:50px; font-weight:bold;""
                                ></p>
                                <div style=""width:240px; margin: auto;"">
                                    <img src=""images/D37.png"" style= ""width:200px""alt=""img"">
