"success","timeout","failed_images","failed_audio","failed_video","trial_type","trial_index","time_elapsed","internal_node_id","subject_id","rt","stimulus","response","question_order","slider_start","image_path","practiceTrial","practiceTrialNum","correct","slider_labels"
"true","false","[]","[]","[]","preload","0","773","0.0-0.0","zrw07bgkyc","","","","","","","","","",""
"","","","","","html-button-response","1","2499","0.0-1.0","zrw07bgkyc","1724","<div style='text-align:center; font-size:20px; line-height:25px; width: 1200px;'>
                Welcome to our experiment! <br>
                <br>At the bottom of this screen, you will see a button that says 'Begin Experiment.
                <br>Please only click that button when you are ready to complete the 25 minute experiment in one sitting. <br>
                <br> Once you click that button, it will not be possible to restart the experiment. <br><br>","0","","","","","","",""
"true","","","","","fullscreen","2","4378","0.0-2.0","zrw07bgkyc","868","","","","","","","","",""
"","","","","","survey-multi-select","3","10451","0.0-3.0","zrw07bgkyc","6067","","{""Consent"":[""<strong>I consent</strong>""]}","[0]","","","","","",""
"","","","","","html-button-response","4","13878","0.0-4.0","zrw07bgkyc","3424","Welcome! <p> This experiment involves two parts: demographic information, followed by the experimental task.<p> It will take about 25 minutes to complete both parts.","0","","","","","","",""
"","","","","","survey-text","5","21545","0.0-5.0","zrw07bgkyc","7660","","{""Age"":""18"",""Gender"":""male"",""Race/ethnicity"":""white""}","","","","","","",""
"","","","","","html-slider-response","6","23427","0.0-6.0","zrw07bgkyc","1879","
                <div style='text-align:center; height: auto; margin-left=-100px; margin-bottom: -20px; font-size:20px; line-height:5px; width: 1200px;'>
                    <br>During this experiment, you will see a series of textures, one at a time, like the ones below: 
                </div>
                    <br>
                    <br>
                    <img src=""anchoring_visual_textures.png"" alt=""img"" style=""max-width:1200px; margin-left: -10px;"">
                </div>
                <div style=""clear: both;""></div>
                </div>
                    <div style='text-align:center; margin-left=-100px; font-size:20px; line-height:20px; width: 1200px; margin-top: -50px;'>
                    
                    <br> For each texture, you will be asked to rate where you think it falls on each of the response scales with the following endpoints:
                    </div>
                            <div style=""text-align: center; width: 1400px; "">
                                <p style=""font-size:20px; line-height:5px; ""><b>Blobby</b> versus <b>Stripey</b></p>
                                <p style=""font-size:20px; line-height:5px; ""><b>Rounded</b> versus <b>Rectangular</b></p>
                                <p style=""font-size:20px;line-height:5px;""><b>Coarse</b> versus <b>Fine</b></p>
                                <p style=""font-size:20px;line-height:5px; ""><b>Rough</b> versus <b>Smooth</b></p>
                                <p style=""font-size:20px;line-height:5px; ""><b>Random</b> versus <b>Non-Random</b></p>
                                <p style=""font-size:20px;line-height:5px;""><b>Hard</b> versus <b>Soft</b></p>
                            </div>
                            <div style='text-align:center; font-size:20px; line-height:20px; width: 1400px;'>
                    
                    Each trial will include one texture and one response scale. You will be asked to make your rating by sliding the cursor along a slider response scale like the one below.
                    <br><br> Before beginning, please look at the textures and scales. For each scale, think about the texture you associate most with the left endpoint. When you see that texture for that response scale, please click near the left of the scale.
                    <br><br> Now, please think about the texture you associate most with the right endpoint of each scale. When you see that texture for that response scale, please click near the right of the scale. 
                    <br><br> If you think a texture is not strongly associated with either endpoint of the scale, please click near the midpoint of the scale. Please use the full range of the scale. 
                    <br><br> You will be asked to rate each texture for a given scale before moving on to the next scale.
                    <br><br> Please press the 'Continue' button for instructions on how to use the slider.                     <br><br>
                ","null","","0","visual_textures_anchoring.png","true","","",""
"","","","","","html-button-response","7","24430","0.0-7.0","zrw07bgkyc","1002","<div style=""width:1200px; margin-top:-150px;""><p style=""text-align:center; font-size:24px;"">To move the slider, click and drag your cursor to the location of the scale where you would like to make your rating and then let go. <br><br> When you let go of the slider, your response will be recorded and the next trial will begin. <br><br><br>
                We are interested in your initial impressions of each texture and scale, so please go with your first intuition. <br><br>
                Before you begin the experiment, there will be four training trials for you to practice using the scale. <br><br><br><br></div>
                <div style=""width:1200px;""><p style=""text-align:center; font-size:20px;"">When you are ready to start the training trials, please click ""Continue"".</p></div>","0","","","","","","",""
"","","","","","html-slider-response","8","26752","0.0-8.0-0.0","zrw07bgkyc","NaN","<div style=""width:500px;"">
                                <p style=""font-size:25px;"">Please move the slider all the way to the <br> right endpoint of the scale</p>

                                </div>
                            </div>","200","","0","","true","0","true",""
"","","","","","html-button-response","9","28353","0.0-8.0-1.0","zrw07bgkyc","1087","<p align='center'><b>Good job!</b> Click on 'Continue' to proceed.</p>","0","","","","","","",""
"","","","","","html-slider-response","10","29482","0.0-9.0-0.0","zrw07bgkyc","NaN","<div style=""width:500px;"">
                                <p style=""font-size:25px;"">Please move the slider all the way to the <br> left endpoint of the scale</p>

                                </div>
                            </div>","-200","","0","","true","1","true",""
"","","","","","html-button-response","11","30613","0.0-9.0-1.0","zrw07bgkyc","624","<p align='center'><b>Good job!</b> Click on 'Continue' to proceed.</p>","0","","","","","","",""
"","","","","","html-slider-response","12","34181","0.0-10.0-0.0","zrw07bgkyc","NaN","<div style=""width:500px;"">
                                <p style=""font-size:25px;"">Please move the slider halfway between the center and right endpoint of the scale</p>

                                </div>
                            </div>","97","","0","","true","2","true",""
"","","","","","html-button-response","13","35528","0.0-10.0-1.0","zrw07bgkyc","843","<p align='center'><b>Good job!</b> Click on 'Continue' to proceed.</p>","0","","","","","","",""
"","","","","","html-slider-response","14","37206","0.0-11.0-0.0","zrw07bgkyc","NaN","<div style=""width:500px;"">
                                <p style=""font-size:25px;"">Please move the slider halfway between the center and left endpoint of the scale</p>

                                </div>
                            </div>","-99","","0","","true","3","true",""
"","","","","","html-button-response","15","38293","0.0-11.0-1.0","zrw07bgkyc","577","<p align='center'><b>Good job!</b> Click on 'Continue' to proceed.</p>","0","","","","","","",""
"","","","","","html-button-response","16","41216","0.0-12.0","zrw07bgkyc","2914","<div style=""width:800px; margin-top:-300px;""><p style=""text-align:center; font-size:22px; line-height:25px;""""> Great job! You've completed the practice trials.</div>
                     <div style=""width:800px; margin-top:-20px;""><p style=""text-align:center""><br><br> In the following trials, you will be asked to rate textures on each scale one-by-one. <br> You will be given opportunities to take breaks when you have completed each block of trials. There are six total blocks of trials. <br><br> Please click continue to begin the main task.<br><br><br> </div>","0","","","","","","",""
"","","","","","html-button-response","17","43572","0.0-13.0","zrw07bgkyc","2355","In the following trials, you will be asked to rate textures on the scale <b>Blobby</b> versus <b>Stripey</b>. Please click 'Continue' when you are ready proceed.","0","","","","","","",""
"","","","","","html-slider-response","18","46140","0.0-14.0","zrw07bgkyc","NaN","<div style=""width:500px;"">
                                <p style=""font-size:50px; font-weight:bold;""
                                ></p>
                                <div style=""width:240px; margin: auto;"">
                                    <img src=""images/D106.png"" style= ""width:200px""alt=""img"">
                                </div>
                            </div>","110","","0","images/D106.png","","","","[""Blobby"",""Stripey""]"
"","","","","","html-slider-response","19","49480","0.0-15.0","zrw07bgkyc","NaN","<div style=""width:500px;"">
                                <p style=""font-size:50px; font-weight:bold;""
                                ></p>
                                <div style=""width:240px; margin: auto;"">
                                    <img src=""images/D22.png"" style= ""width:200px""alt=""img"">
                                </div>
                            </div>","33","","0","images/D22.png","","","","[""Blobby"",""Stripey""]"
"","","","","","html-slider-response","20","51168","0.0-16.0","zrw07bgkyc","NaN","<div style=""width:500px;"">
                                <p style=""font-size:50px; font-weight:bold;""
                                ></p>
                                <div style=""width:240px; margin: auto;"">
                                    <img src=""images/D35.png"" style= ""width:200px""alt=""img"">
                                </div>
                            </div>","-82","","0","images/D35.png","","","","[""Blobby"",""Stripey""]"
"","","","","","html-slider-response","21","53392","0.0-17.0","zrw07bgkyc","NaN","<div style=""width:500px;"">
                                <p style=""font-size:50px; font-weight:bold;""
                                ></p>
                                <div style=""width:240px; margin: auto;"">
                                    <img src=""images/D68.png"" style= ""width:200px""alt=""img"">
                                </div>
                            </div>","24","","0","images/D68.png","","","","[""Blobby"",""Stripey""]"
"","","","","","html-slider-response","22","55263","0.0-18.0","zrw07bgkyc","NaN","<div style=""width:500px;"">
                                <p style=""font-size:50px; font-weight:bold;""
                                ></p>
                                <div style=""width:240px; margin: auto;"">
                                    <img src=""images/D84.png"" style= ""width:200px""alt=""img"">
                                </div>
                            </div>","-54","","0","images/D84.png","","","","[""Blobby"",""Stripey""]"
"","","","","","html-slider-response","23","57051","0.0-19.0","zrw07bgkyc","NaN","<div style=""width:500px;"">
                                <p style=""font-size:50px; font-weight:bold;""
                                ></p>
                                <div style=""width:240px; margin: auto;"">
                                    <img src=""images/D111.png"" style= ""width:200px""alt=""img"">
                                </div>
                            </div>","-200","","0","images/D111.png","","","","[""Blobby"",""Stripey""]"
"","","","","","html-slider-response","24","59048","0.0-20.0","zrw07bgkyc","NaN","<div style=""width:500px;"">
                                <p style=""font-size:50px; font-weight:bold;""
                                ></p>
                                <div style=""width:240px; margin: auto;"">
                                    <img src=""images/D1.png"" style= ""width:200px""alt=""img"">
                                </div>
                            </div>","-192","","0","images/D1.png","","","","[""Blobby"",""Stripey""]"
"","","","","","html-slider-response","25","60674","0.0-21.0","zrw07bgkyc","NaN","<div style=""width:500px;"">
                                <p style=""font-size:50px; font-weight:bold;""
                                ></p>
                                <div style=""width:240px; margin: auto;"">
                                    <img src=""images/D103.png"" style= ""width:200px""alt=""img"">
                                </div>
                            </div>","61","","0","images/D103.png","","","","[""Blobby"",""Stripey""]"
"","","","","","html-slider-response","26","62370","0.0-22.0","zrw07bgkyc","NaN","<div style=""width:500px;"">
                                <p style=""font-size:50px; font-weight:bold;""
                                ></p>
                                <div style=""width:240px; margin: auto;"">
                                    <img src=""images/D74.png"" style= ""width:200px""alt=""img"">
                                </div>
                            </div>","-187","","0","images/D74.png","","","","[""Blobby"",""Stripey""]"
"","","","","","html-slider-response","27","64074","0.0-23.0","zrw07bgkyc","NaN","<div style=""width:500px;"">
                                <p style=""font-size:50px; font-weight:bold;""
                                ></p>
                                <div style=""width:240px; margin: auto;"">
                                    <img src=""images/D20.png"" style= ""width:200px""alt=""img"">
                                </div>
                            </div>","-126","","0","images/D20.png","","","","[""Blobby"",""Stripey""]"
"","","","","","html-slider-response","28","65885","0.0-24.0","zrw07bgkyc","NaN","<div style=""width:500px;"">
                                <p style=""font-size:50px; font-weight:bold;""
                                ></p>
                                <div style=""width:240px; margin: auto;"">
                                    <img src=""images/D19.png"" style= ""width:200px""alt=""img"">
                                </div>
                            </div>","-89","","0","images/D19.png","","","","[""Blobby"",""Stripey""]"
"","","","","","html-slider-response","29","67721","0.0-25.0","zrw07bgkyc","NaN","<div style=""width:500px;"">
                                <p style=""font-size:50px; font-weight:bold;""
                                ></p>
                                <div style=""width:240px; margin: auto;"">
                                    <img src=""images/D17.png"" style= ""width:200px""alt=""img"">
                                </div>
                            </div>","67","","0","images/D17.png","","","","[""Blobby"",""Stripey""]"
"","","","","","html-slider-response","30","69377","0.0-26.0","zrw07bgkyc","NaN","<div style=""width:500px;"">
                                <p style=""font-size:50px; font-weight:bold;""
                                ></p>
                                <div style=""width:240px; margin: auto;"">
                                    <img src=""images/D9.png"" style= ""width:200px""alt=""img"">
                                </div>
                            </div>","-200","","0","images/D9.png","","","","[""Blobby"",""Stripey""]"
"","","","","","html-slider-response","31","71961","0.0-27.0","zrw07bgkyc","NaN","<div style=""width:500px;"">
                                <p style=""font-size:50px; font-weight:bold;""
                                ></p>
                                <div style=""width:240px; margin: auto;"">
                                    <img src=""images/D25.png"" style= ""width:200px""alt=""img"">
                                </div>
                            </div>","14","","0","images/D25.png","","","","[""Blobby"",""Stripey""]"
"","","","","","html-slider-response","32","73498","0.0-28.0","zrw07bgkyc","NaN","<div style=""width:500px;"">
                                <p style=""font-size:50px; font-weight:bold;""
                                ></p>
                                <div style=""width:240px; margin: auto;"">
                                    <img src=""images/D101.png"" style= ""width:200px""alt=""img"">
                                </div>
                            </div>","-200","","0","images/D101.png","","","","[""Blobby"",""Stripey""]"
"","","","","","html-slider-response","33","75603","0.0-29.0","zrw07bgkyc","NaN","<div style=""width:500px;"">
                                <p style=""font-size:50px; font-weight:bold;""
                                ></p>
                                <div style=""width:240px; margin: auto;"">
                                    <img src=""images/D78.png"" style= ""width:200px""alt=""img"">
                                </div>
                            </div>","28","","0","images/D78.png","","","","[""Blobby"",""Stripey""]"
"","","","","","html-slider-response","34","76950","0.0-30.0","zrw07bgkyc","NaN","<div style=""width:500px;"">
                                <p style=""font-size:50px; font-weight:bold;""
                                ></p>
                                <div style=""width:240px; margin: auto;"">
                                    <img src=""images/D96.png"" style= ""width:200px""alt=""img"">
                                </div>
                            </div>","7","","0","images/D96.png","","","","[""Blobby"",""Stripey""]"
"","","","","","html-slider-response","35","78854","0.0-31.0","zrw07bgkyc","NaN","<div style=""width:500px;"">
                                <p style=""font-size:50px; font-weight:bold;""
                                ></p>
                                <div style=""width:240px; margin: auto;"">
                                    <img src=""images/D37.png"" style= ""width:200px""alt=""img"">
                                </div>
                            </div>","-200","","0","images/D37.png","","","","[""Blobby"",""Stripey""]"
"","","","","","html-slider-response","36","80302","0.0-32.0","zrw07bgkyc","NaN","<div style=""width:500px;"">
                                <p style=""font-size:50px; font-weight:bold;""
                                ></p>
                                <div style=""width:240px; margin: auto;"">
                                    <img src=""images/D55.png"" style= ""width:200px""alt=""img"">
                                </div>
                            </div>","26","","0","images/D55.png","","","","[""Blobby"",""Stripey""]"
"","","","","","html-slider-response","37","81813","0.0-33.0","zrw07bgkyc","NaN","<div style=""width:500px;"">
                                <p style=""font-size:50px; font-weight:bold;""
                                ></p>
                                <div style=""width:240px; margin: auto;"">
                                    <img src=""images/D6.png"" style= ""width:200px""alt=""img"">
                                </div>
                            </div>","21","","0","images/D6.png","","","","[""Blobby"",""Stripey""]"
"","","","","","html-slider-response","38","83279","0.0-34.0","zrw07bgkyc","NaN","<div style=""width:500px;"">
                                <p style=""font-size:50px; font-weight:bold;""
                                ></p>
                                <div style=""width:240px; margin: auto;"">
                                    <img src=""images/D80.png"" style= ""width:200px""alt=""img"">
                                </div>
                            </div>","-80","","0","images/D80.png","","","","[""Blobby"",""Stripey""]"
"","","","","","html-slider-response","39","85264","0.0-35.0","zrw07bgkyc","NaN","<div style=""width:500px;"">
                                <p style=""font-size:50px; font-weight:bold;""
                                ></p>
                                <div style=""width:240px; margin: auto;"">
                                    <img src=""images/D47.png"" style= ""width:200px""alt=""img"">
                                </div>
                            </div>","199","","0","images/D47.png","","","","[""Blobby"",""Stripey""]"
"","","","","","html-slider-response","40","86788","0.0-36.0","zrw07bgkyc","NaN","<div style=""width:500px;"">
                                <p style=""font-size:50px; font-weight:bold;""
                                ></p>
                                <div style=""width:240px; margin: auto;"">
                                    <img src=""images/D46.png"" style= ""width:200px""alt=""img"">
                                </div>
                            </div>","200","","0","images/D46.png","","","","[""Blobby"",""Stripey""]"
"","","","","","html-slider-response","41","87838","0.0-37.0","zrw07bgkyc","NaN","<div style=""width:500px;"">
                                <p style=""font-size:50px; font-weight:bold;""
                                ></p>
                                <div style=""width:240px; margin: auto;"">
                                    <img src=""images/D87.png"" style= ""width:200px""alt=""img"">
                                </div>
                            </div>","112","","0","images/D87.png","","","","[""Blobby"",""Stripey""]"
"","","","","","html-slider-response","42","89071","0.0-38.0","zrw07bgkyc","NaN","<div style=""width:500px;"">
                                <p style=""font-size:50px; font-weight:bold;""
                                ></p>
                                <div style=""width:240px; margin: auto;"">
                                    <img src=""images/D102.png"" style= ""width:200px""alt=""img"">
                                </div>
                            </div>","-83","","0","images/D102.png","","","","[""Blobby"",""Stripey""]"
"","","","","","html-slider-response","43","90522","0.0-39.0","zrw07bgkyc","NaN","<div style=""width:500px;"">
                                <p style=""font-size:50px; font-weight:bold;""
                                ></p>
                                <div style=""width:240px; margin: auto;"">
                                    <img src=""images/D105.png"" style= ""width:200px""alt=""img"">
                                </div>
                            </div>","71","","0","images/D105.png","","","","[""Blobby"",""Stripey""]"
"","","","","","html-slider-response","44","91759","0.0-40.0","zrw07bgkyc","NaN","<div style=""width:500px;"">
                                <p style=""font-size:50px; font-weight:bold;""
                                ></p>
                                <div style=""width:240px; margin: auto;"">
                                    <img src=""images/D29.png"" style= ""width:200px""alt=""img"">
                                </div>
                            </div>","-126","","0","images/D29.png","","","","[""Blobby"",""Stripey""]"
"","","","","","html-slider-response","45","93637","0.0-41.0","zrw07bgkyc","NaN","<div style=""width:500px;"">
                                <p style=""font-size:50px; font-weight:bold;""
                                ></p>
                                <div style=""width:240px; margin: auto;"">
                                    <img src=""images/D57.png"" style= ""width:200px""alt=""img"">
                                </div>
                            </div>","-137","","0","images/D57.png","","","","[""Blobby"",""Stripey""]"
"","","","","","html-slider-response","46","95387","0.0-42.0","zrw07bgkyc","NaN","<div style=""width:500px;"">
                                <p style=""font-size:50px; font-weight:bold;""
                                ></p>
                                <div style=""width:240px; margin: auto;"">
                                    <img src=""images/D75.png"" style= ""width:200px""alt=""img"">
                                </div>
                            </div>","-170","","0","images/D75.png","","","","[""Blobby"",""Stripey""]"
"","","","","","html-slider-response","47","97124","0.0-43.0","zrw07bgkyc","NaN","<div style=""width:500px;"">
                                <p style=""font-size:50px; font-weight:bold;""
                                ></p>
                                <div style=""width:240px; margin: auto;"">
                                    <img src=""images/D85.png"" style= ""width:200px""alt=""img"">
                                </div>
                            </div>","162","","0","images/D85.png","","","","[""Blobby"",""Stripey""]"
"","","","","","html-slider-response","48","98424","0.0-44.0","zrw07bgkyc","NaN","<div style=""width:500px;"">
                                <p style=""font-size:50px; font-weight:bold;""
                                ></p>
                                <div style=""width:240px; margin: auto;"">
                                    <img src=""images/D16.png"" style= ""width:200px""alt=""img"">
                                </div>
                            </div>","-80","","0","images/D16.png","","","","[""Blobby"",""Stripey""]"
"","","","","","html-slider-response","49","100267","0.0-45.0","zrw07bgkyc","NaN","<div style=""width:500px;"">
                                <p style=""font-size:50px; font-weight:bold;""
                                ></p>
                                <div style=""width:240px; margin: auto;"">
                                    <img src=""images/D32.png"" style= ""width:200px""alt=""img"">
                                </div>
                            </div>","-199","","0","images/D32.png","","","","[""Blobby"",""Stripey""]"
"","","","","","html-slider-response","50","102422","0.0-46.0","zrw07bgkyc","NaN","<div style=""width:500px;"">
                                <p style=""font-size:50px; font-weight:bold;""
                                ></p>
                                <div style=""width:240px; margin: auto;"">
                                    <img src=""images/D18.png"" style= ""width:200px""alt=""img"">
                                </div>
                            </div>","-13","","0","images/D18.png","","","","[""Blobby"",""Stripey""]"
"","","","","","html-slider-response","51","104284","0.0-47.0","zrw07bgkyc","NaN","<div style=""width:500px;"">
                                <p style=""font-size:50px; font-weight:bold;""
                                ></p>
                                <div style=""width:240px; margin: auto;"">
                                    <img src=""images/D66.png"" style= ""width:200px""alt=""img"">
                                </div>
                            </div>","-83","","0","images/D66.png","","","","[""Blobby"",""Stripey""]"
"","","","","","html-slider-response","52","106080","0.0-48.0","zrw07bgkyc","NaN","<div style=""width:500px;"">
                                <p style=""font-size:50px; font-weight:bold;""
                                ></p>
                                <div style=""width:240px; margin: auto;"">
                                    <img src=""images/D79.png"" style= ""width:200px""alt=""img"">
                                </div>
                            </div>","70","","0","images/D79.png","","","","[""Blobby"",""Stripey""]"
"","","","","","html-slider-response","53","108277","0.0-49.0","zrw07bgkyc","NaN","<div style=""width:500px;"">
                                <p style=""font-size:50px; font-weight:bold;""
                                ></p>
                                <div style=""width:240px; margin: auto;"">
                                    <img src=""images/D4.png"" style= ""width:200px""alt=""img"">
                                </div>
                            </div>","-116","","0","images/D4.png","","","","[""Blobby"",""Stripey""]"
"","","","","","html-slider-response","54","110899","0.0-50.0","zrw07bgkyc","NaN","<div style=""width:500px;"">
                                <p style=""font-size:50px; font-weight:bold;""
                                ></p>
                                <div style=""width:240px; margin: auto;"">
                                    <img src=""images/D94.png"" style= ""width:200px""alt=""img"">
                                </div>
                            </div>","47","","0","images/D94.png","","","","[""Blobby"",""Stripey""]"
"","","","","","html-slider-response","55","112816","0.0-51.0","zrw07bgkyc","NaN","<div style=""width:500px;"">
                                <p style=""font-size:50px; font-weight:bold;""
                                ></p>
                                <div style=""width:240px; margin: auto;"">
                                    <img src=""images/D53.png"" style= ""width:200px""alt=""img"">
                                </div>
                            </div>","94","","0","images/D53.png","","","","[""Blobby"",""Stripey""]"
"","","","","","html-slider-response","56","114209","0.0-52.0","zrw07bgkyc","NaN","<div style=""width:500px;"">
                                <p style=""font-size:50px; font-weight:bold;""
                                ></p>
                                <div style=""width:240px; margin: auto;"">
                                    <img src=""images/D24.png"" style= ""width:200px""alt=""img"">
                                </div>
                            </div>","-96","","0","images/D24.png","","","","[""Blobby"",""Stripey""]"
"","","","","","html-slider-response","57","115658","0.0-53.0","zrw07bgkyc","NaN","<div style=""width:500px;"">
                                <p style=""font-size:50px; font-weight:bold;""
                                ></p>
                                <div style=""width:240px; margin: auto;"">
                                    <img src=""images/D104.png"" style= ""width:200px""alt=""img"">
                                </div>
                            </div>","-110","","0","images/D104.png","","","","[""Blobby"",""Stripey""]"
"","","","","","html-slider-response","58","117539","0.0-54.0","zrw07bgkyc","NaN","<div style=""width:500px;"">
                                <p style=""font-size:50px; font-weight:bold;""
                                ></p>
                                <div style=""width:240px; margin: auto;"">
                                    <img src=""images/D21.png"" style= ""width:200px""alt=""img"">
                                </div>
                            </div>","-102","","0","images/D21.png","","","","[""Blobby"",""Stripey""]"
"","","","","","html-slider-response","59","119434","0.0-55.0","zrw07bgkyc","NaN","<div style=""width:500px;"">
                                <p style=""font-size:50px; font-weight:bold;""
                                ></p>
                                <div style=""width:240px; margin: auto;"">
                                    <img src=""images/D26.png"" style= ""width:200px""alt=""img"">
                                </div>
                            </div>","-30","","0","images/D26.png","","","","[""Blobby"",""Stripey""]"
"","","","","","html-slider-response","60","120955","0.0-56.0","zrw07bgkyc","NaN","<div style=""width:500px;"">
                                <p style=""font-size:50px; font-weight:bold;""
                                ></p>
                                <div style=""width:240px; margin: auto;"">
                                    <img src=""images/D83.png"" style= ""width:200px""alt=""img"">
                                </div>
                            </div>","104","","0","images/D83.png","","","","[""Blobby"",""Stripey""]"
"","","","","","html-slider-response","61","123080","0.0-57.0","zrw07bgkyc","NaN","<div style=""width:500px;"">
                                <p style=""font-size:50px; font-weight:bold;""
                                ></p>
                                <div style=""width:240px; margin: auto;"">
                                    <img src=""images/D64.png"" style= ""width:200px""alt=""img"">
                                </div>
                            </div>","48","","0","images/D64.png","","","","[""Blobby"",""Stripey""]"
"","","","","","html-slider-response","62","124599","0.0-58.0","zrw07bgkyc","NaN","<div style=""width:500px;"">
                                <p style=""font-size:50px; font-weight:bold;""
                                ></p>
                                <div style=""width:240px; margin: auto;"">
                                    <img src=""images/D82.png"" style= ""width:200px""alt=""img"">
                                </div>
                            </div>","45","","0","images/D82.png","","","","[""Blobby"",""Stripey""]"
"","","","","","html-slider-response","63","126283","0.0-59.0","zrw07bgkyc","NaN","<div style=""width:500px;"">
                                <p style=""font-size:50px; font-weight:bold;""
                                ></p>
                                <div style=""width:240px; margin: auto;"">
                                    <img src=""images/D92.png"" style= ""width:200px""alt=""img"">
                                </div>
                            </div>","-64","","0","images/D92.png","","","","[""Blobby"",""Stripey""]"
"","","","","","html-slider-response","64","127767","0.0-60.0","zrw07bgkyc","NaN","<div style=""width:500px;"">
                                <p style=""font-size:50px; font-weight:bold;""
                                ></p>
                                <div style=""width:240px; margin: auto;"">
                                    <img src=""images/D3.png"" style= ""width:200px""alt=""img"">
                                </div>
                            </div>","69","","0","images/D3.png","","","","[""Blobby"",""Stripey""]"
"","","","","","html-slider-response","65","129278","0.0-61.0","zrw07bgkyc","NaN","<div style=""width:500px;"">
                                <p style=""font-size:50px; font-weight:bold;""
                                ></p>
                                <div style=""width:240px; margin: auto;"">
                                    <img src=""images/D14.png"" style= ""width:200px""alt=""img"">
                                </div>
                            </div>","-86","","0","images/D14.png","","","","[""Blobby"",""Stripey""]"
"","","","","","html-slider-response","66","130521","0.0-62.0","zrw07bgkyc","NaN","<div style=""width:500px;"">
                                <p style=""font-size:50px; font-weight:bold;""
                                ></p>
                                <div style=""width:240px; margin: auto;"">
                                    <img src=""images/D8.png"" style= ""width:200px""alt=""img"">
                                </div>
                            </div>","-64","","0","images/D8.png","","","","[""Blobby"",""Stripey""]"
"","","","","","html-slider-response","67","132299","0.0-63.0","zrw07bgkyc","NaN","<div style=""width:500px;"">
                                <p style=""font-size:50px; font-weight:bold;""
                                ></p>
                                <div style=""width:240px; margin: auto;"">
                                    <img src=""images/D51.png"" style= ""width:200px""alt=""img"">
                                </div>
                            </div>","118","","0","images/D51.png","","","","[""Blobby"",""Stripey""]"
"","","","","","html-slider-response","68","133655","0.0-64.0","zrw07bgkyc","NaN","<div style=""width:500px;"">
                                <p style=""font-size:50px; font-weight:bold;""
                                ></p>
                                <div style=""width:240px; margin: auto;"">
                                    <img src=""images/D48.png"" style= ""width:200px""alt=""img"">
                                </div>
                            </div>","-84","","0","images/D48.png","","","","[""Blobby"",""Stripey""]"
"","","","","","html-slider-response","69","135102","0.0-65.0","zrw07bgkyc","NaN","<div style=""width:500px;"">
                                <p style=""font-size:50px; font-weight:bold;""
                                ></p>
                                <div style=""width:240px; margin: auto;"">
                                    <img src=""images/D77.png"" style= ""width:200px""alt=""img"">
                                </div>
                            </div>","-85","","0","images/D77.png","","","","[""Blobby"",""Stripey""]"
"","","","","","html-slider-response","70","136369","0.0-66.0","zrw07bgkyc","NaN","<div style=""width:500px;"">
                                <p style=""font-size:50px; font-weight:bold;""
                                ></p>
                                <div style=""width:240px; margin: auto;"">
                                    <img src=""images/D52.png"" style= ""width:200px""alt=""img"">
                                </div>
                            </div>","-12","","0","images/D52.png","","","","[""Blobby"",""Stripey""]"
"","","","","","html-slider-response","71","137843","0.0-67.0","zrw07bgkyc","NaN","<div style=""width:500px;"">
                                <p style=""font-size:50px; font-weight:bold;""
                                ></p>
                                <div style=""width:240px; margin: auto;"">
                                    <img src=""images/D56.png"" style= ""width:200px""alt=""img"">
                                </div>
                            </div>","-34","","0","images/D56.png","","","","[""Blobby"",""Stripey""]"
"","","","","","html-slider-response","72","139671","0.0-68.0","zrw07bgkyc","NaN","<div style=""width:500px;"">
                                <p style=""font-size:50px; font-weight:bold;""
                                ></p>
                                <div style=""width:240px; margin: auto;"">
                                    <img src=""images/D34.png"" style= ""width:200px""alt=""img"">
                                </div>
                            </div>","-149","","0","images/D34.png","","","","[""Blobby"",""Stripey""]"
"","","","","","html-slider-response","73","141017","0.0-69.0","zrw07bgkyc","NaN","<div style=""width:500px;"">
                                <p style=""font-size:50px; font-weight:bold;""
                                ></p>
                                <div style=""width:240px; margin: auto;"">
                                    <img src=""images/D81.png"" style= ""width:200px""alt=""img"">
                                </div>
                            </div>","114","","0","images/D81.png","","","","[""Blobby"",""Stripey""]"
"","","","","","html-slider-response","74","142772","0.0-70.0","zrw07bgkyc","NaN","<div style=""width:500px;"">
                                <p style=""font-size:50px; font-weight:bold;""
                                ></p>
                                <div style=""width:240px; margin: auto;"">
                                    <img src=""images/D76.png"" style= ""width:200px""alt=""img"">
                                </div>
                            </div>","168","","0","images/D76.png","","","","[""Blobby"",""Stripey""]"
"","","","","","html-slider-response","75","145107","0.0-71.0","zrw07bgkyc","NaN","<div style=""width:500px;"">
                                <p style=""font-size:50px; font-weight:bold;""
                                ></p>
                                <div style=""width:240px; margin: auto;"">
                                    <img src=""images/D65.png"" style= ""width:200px""alt=""img"">
                                </div>
                            </div>","-93","","0","images/D65.png","","","","[""Blobby"",""Stripey""]"
"","","","","","html-slider-response","76","146578","0.0-72.0","zrw07bgkyc","NaN","<div style=""width:500px;"">
                                <p style=""font-size:50px; font-weight:bold;""
                                ></p>
                                <div style=""width:240px; margin: auto;"">
                                    <img src=""images/D49.png"" style= ""width:200px""alt=""img"">
                                </div>
                            </div>","109","","0","images/D49.png","","","","[""Blobby"",""Stripey""]"
"","","","","","html-slider-response","77","148827","0.0-73.0","zrw07bgkyc","NaN","<div style=""width:500px;"">
                                <p style=""font-size:50px; font-weight:bold;""
                                ></p>
                                <div style=""width:240px; margin: auto;"">
                                    <img src=""images/D95.png"" style= ""width:200px""alt=""img"">
                                </div>
                            </div>","109","","0","images/D95.png","","","","[""Blobby"",""Stripey""]"
"","","","","","html-slider-response","78","156171","0.0-74.0","zrw07bgkyc","NaN","<div style=""width:500px;"">
                                <p style=""font-size:50px; font-weight:bold;""
                                ></p>
                                <div style=""width:240px; margin: auto;"">
                                    <img src=""images/D36.png"" style= ""width:200px""alt=""img"">
                                </div>
                            </div>","105","","0","images/D36.png","","","","[""Blobby"",""Stripey""]"
"","","","","","html-slider-response","79","162193","0.0-75.0","zrw07bgkyc","NaN","<div style=""width:500px;"">
                                <p style=""font-size:50px; font-weight:bold;""
                                ></p>
                                <div style=""width:240px; margin: auto;"">
                                    <img src=""images/D11.png"" style= ""width:200px""alt=""img"">
                                </div>
                            </div>","121","","0","images/D11.png","","","","[""Blobby"",""Stripey""]"
"","","","","","html-button-response","80","170867","0.0-76.0","zrw07bgkyc","8168","You have completed the first block of trials out of six. Please click 'Continue' when you are ready proceed.","0","","","","","","",""
"","","","","","html-button-response","81","171876","0.0-77.0","zrw07bgkyc","1006","In the following trials, you will be asked to rate textures on the scale <b>Coarse</b> versus <b>Fine</b>. Please click 'Continue' when you are ready proceed.","0","","","","","","",""
"","","","","","html-slider-response","82","173165","0.0-78.0","zrw07bgkyc","NaN","<div style=""width:500px;"">
                                <p style=""font-size:50px; font-weight:bold;""
                                ></p>
                                <div style=""width:240px; margin: auto;"">
                                    <img src=""images/D106.png"" style= ""width:200px""alt=""img"">
                                </div>
                            </div>","130","","0","images/D106.png","","","","[""Coarse"",""Fine""]"
"","","","","","html-slider-response","83","174173","0.0-79.0","zrw07bgkyc","NaN","<div style=""width:500px;"">
                                <p style=""font-size:50px; font-weight:bold;""
                                ></p>
                                <div style=""width:240px; margin: auto;"">
                                    <img src=""images/D22.png"" style= ""width:200px""alt=""img"">
                                </div>
                            </div>","126","","0","images/D22.png","","","","[""Coarse"",""Fine""]"
"","","","","","html-slider-response","84","174922","0.0-80.0","zrw07bgkyc","NaN","<div style=""width:500px;"">
                                <p style=""font-size:50px; font-weight:bold;""
                                ></p>
                                <div style=""width:240px; margin: auto;"">
                                    <img src=""images/D35.png"" style= ""width:200px""alt=""img"">
                                </div>
                            </div>","123","","0","images/D35.png","","","","[""Coarse"",""Fine""]"
"","","","","","html-slider-response","85","175640","0.0-81.0","zrw07bgkyc","NaN","<div style=""width:500px;"">
                                <p style=""font-size:50px; font-weight:bold;""
                                ></p>
                                <div style=""width:240px; margin: auto;"">
                                    <img src=""images/D68.png"" style= ""width:200px""alt=""img"">
                                </div>
                            </div>","123","","0","images/D68.png","","","","[""Coarse"",""Fine""]"
"","","","","","html-slider-response","86","176458","0.0-82.0","zrw07bgkyc","NaN","<div style=""width:500px;"">
                                <p style=""font-size:50px; font-weight:bold;""
                                ></p>
                                <div style=""width:240px; margin: auto;"">
                                    <img src=""images/D84.png"" style= ""width:200px""alt=""img"">
                                </div>
                            </div>","118","","0","images/D84.png","","","","[""Coarse"",""Fine""]"
"","","","","","html-slider-response","87","177441","0.0-83.0","zrw07bgkyc","NaN","<div style=""width:500px;"">
                                <p style=""font-size:50px; font-weight:bold;""
                                ></p>
                                <div style=""width:240px; margin: auto;"">
                                    <img src=""images/D111.png"" style= ""width:200px""alt=""img"">
                                </div>
                            </div>","2","","0","images/D111.png","","","","[""Coarse"",""Fine""]"
"","","","","","html-slider-response","88","178274","0.0-84.0","zrw07bgkyc","NaN","<div style=""width:500px;"">
                                <p style=""font-size:50px; font-weight:bold;""
                                ></p>
                                <div style=""width:240px; margin: auto;"">
                                    <img src=""images/D1.png"" style= ""width:200px""alt=""img"">
                                </div>
                            </div>","-18","","0","images/D1.png","","","","[""Coarse"",""Fine""]"
"","","","","","html-slider-response","89","178972","0.0-85.0","zrw07bgkyc","NaN","<div style=""width:500px;"">
                                <p style=""font-size:50px; font-weight:bold;""
                                ></p>
                                <div style=""width:240px; margin: auto;"">
                                    <img src=""images/D103.png"" style= ""width:200px""alt=""img"">
                                </div>
                            </div>","-4","","0","images/D103.png","","","","[""Coarse"",""Fine""]"
"","","","","","html-slider-response","90","179839","0.0-86.0","zrw07bgkyc","NaN","<div style=""width:500px;"">
                                <p style=""font-size:50px; font-weight:bold;""
                                ></p>
                                <div style=""width:240px; margin: auto;"">
                                    <img src=""images/D74.png"" style= ""width:200px""alt=""img"">
                                </div>
                            </div>","-4","","0","images/D74.png","","","","[""Coarse"",""Fine""]"
"","","","","","html-slider-response","91","180935","0.0-87.0","zrw07bgkyc","NaN","<div style=""width:500px;"">
                                <p style=""font-size:50px; font-weight:bold;""
                                ></p>
                                <div style=""width:240px; margin: auto;"">
                                    <img src=""images/D20.png"" style= ""width:200px""alt=""img"">
                                </div>
                            </div>","-4","","0","images/D20.png","","","","[""Coarse"",""Fine""]"
"","","","","","html-slider-response","92","181728","0.0-88.0","zrw07bgkyc","NaN","<div style=""width:500px;"">
                                <p style=""font-size:50px; font-weight:bold;""
                                ></p>
                                <div style=""width:240px; margin: auto;"">
                                    <img src=""images/D19.png"" style= ""width:200px""alt=""img"">
                                </div>
                            </div>","-4","","0","images/D19.png","","","","[""Coarse"",""Fine""]"
"","","","","","html-slider-response","93","182806","0.0-89.0","zrw07bgkyc","NaN","<div style=""width:500px;"">
                                <p style=""font-size:50px; font-weight:bold;""
                                ></p>
                                <div style=""width:240px; margin: auto;"">
                                    <img src=""images/D17.png"" style= ""width:200px""alt=""img"">
                                </div>
                            </div>","-4","","0","images/D17.png","","","","[""Coarse"",""Fine""]"
"","","","","","html-slider-response","94","183846","0.0-90.0","zrw07bgkyc","NaN","<div style=""width:500px;"">
                                <p style=""font-size:50px; font-weight:bold;""
                                ></p>
                                <div style=""width:240px; margin: auto;"">
                                    <img src=""images/D9.png"" style= ""width:200px""alt=""img"">
                                </div>
                            </div>","25","","0","images/D9.png","","","","[""Coarse"",""Fine""]"
"","","","","","html-slider-response","95","184638","0.0-91.0","zrw07bgkyc","NaN","<div style=""width:500px;"">
                                <p style=""font-size:50px; font-weight:bold;""
                                ></p>
                                <div style=""width:240px; margin: auto;"">
                                    <img src=""images/D25.png"" style= ""width:200px""alt=""img"">
                                </div>
                            </div>","-29","","0","images/D25.png","","","","[""Coarse"",""Fine""]"
"","","","","","html-slider-response","96","185478","0.0-92.0","zrw07bgkyc","NaN","<div style=""width:500px;"">
                                <p style=""font-size:50px; font-weight:bold;""
                                ></p>
                                <div style=""width:240px; margin: auto;"">
                                    <img src=""images/D101.png"" style= ""width:200px""alt=""img"">
                                </div>
                            </div>","36","","0","images/D101.png","","","","[""Coarse"",""Fine""]"
"","","","","","html-slider-response","97","186471","0.0-93.0","zrw07bgkyc","NaN","<div style=""width:500px;"">
                                <p style=""font-size:50px; font-weight:bold;""
                                ></p>
                                <div style=""width:240px; margin: auto;"">
                                    <img src=""images/D78.png"" style= ""width:200px""alt=""img"">
                                </div>
                            </div>","2","","0","images/D78.png","","","","[""Coarse"",""Fine""]"
"","","","","","html-slider-response","98","189373","0.0-94.0","zrw07bgkyc","NaN","<div style=""width:500px;"">
                                <p style=""font-size:50px; font-weight:bold;""
                                ></p>
                                <div style=""width:240px; margin: auto;"">
                                    <img src=""images/D96.png"" style= ""width:200px""alt=""img"">
                                </div>
                            </div>","70","","0","images/D96.png","","","","[""Coarse"",""Fine""]"
"","","","","","html-slider-response","99","190645","0.0-95.0","zrw07bgkyc","NaN","<div style=""width:500px;"">
                                <p style=""font-size:50px; font-weight:bold;""
                                ></p>
                                <div style=""width:240px; margin: auto;"">
                                    <img src=""images/D37.png"" style= ""width:200px""alt=""img"">
                                </div>
                            </div>","-58","","0","images/D37.png","","","","[""Coarse"",""Fine""]"
"","","","","","html-slider-response","100","192003","0.0-96.0","zrw07bgkyc","NaN","<div style=""width:500px;"">
                                <p style=""font-size:50px; font-weight:bold;""
                                ></p>
                                <div style=""width:240px; margin: auto;"">
                                    <img src=""images/D55.png"" style= ""width:200px""alt=""img"">
                                </div>
                            </div>","69","","0","images/D55.png","","","","[""Coarse"",""Fine""]"
"","","","","","html-slider-response","101","194522","0.0-97.0","zrw07bgkyc","NaN","<div style=""width:500px;"">
                                <p style=""font-size:50px; font-weight:bold;""
                                ></p>
                                <div style=""width:240px; margin: auto;"">
                                    <img src=""images/D6.png"" style= ""width:200px""alt=""img"">
                                </div>
                            </div>","90","","0","images/D6.png","","","","[""Coarse"",""Fine""]"
"","","","","","html-slider-response","102","196213","0.0-98.0","zrw07bgkyc","NaN","<div style=""width:500px;"">
                                <p style=""font-size:50px; font-weight:bold;""
                                ></p>
                                <div style=""width:240px; margin: auto;"">
                                    <img src=""images/D80.png"" style= ""width:200px""alt=""img"">
                                </div>
                            </div>","-80","","0","images/D80.png","","","","[""Coarse"",""Fine""]"
"","","","","","html-slider-response","103","197676","0.0-99.0","zrw07bgkyc","NaN","<div style=""width:500px;"">
                                <p style=""font-size:50px; font-weight:bold;""
                                ></p>
                                <div style=""width:240px; margin: auto;"">
                                    <img src=""images/D47.png"" style= ""width:200px""alt=""img"">
                                </div>
                            </div>","-118","","0","images/D47.png","","","","[""Coarse"",""Fine""]"
"","","","","","html-slider-response","104","198879","0.0-100.0","zrw07bgkyc","NaN","<div style=""width:500px;"">
                                <p style=""font-size:50px; font-weight:bold;""
                                ></p>
                                <div style=""width:240px; margin: auto;"">
                                    <img src=""images/D46.png"" style= ""width:200px""alt=""img"">
                                </div>
                            </div>","-79","","0","images/D46.png","","","","[""Coarse"",""Fine""]"
"","","","","","html-slider-response","105","199976","0.0-101.0","zrw07bgkyc","NaN","<div style=""width:500px;"">
                                <p style=""font-size:50px; font-weight:bold;""
                                ></p>
                                <div style=""width:240px; margin: auto;"">
                                    <img src=""images/D87.png"" style= ""width:200px""alt=""img"">
                                </div>
                            </div>","66","","0","images/D87.png","","","","[""Coarse"",""Fine""]"
"","","","","","html-slider-response","106","201534","0.0-102.0","zrw07bgkyc","NaN","<div style=""width:500px;"">
                                <p style=""font-size:50px; font-weight:bold;""
                                ></p>
                                <div style=""width:240px; margin: auto;"">
                                    <img src=""images/D102.png"" style= ""width:200px""alt=""img"">
                                </div>
                            </div>","93","","0","images/D102.png","","","","[""Coarse"",""Fine""]"
"","","","","","html-slider-response","107","202993","0.0-103.0","zrw07bgkyc","NaN","<div style=""width:500px;"">
                                <p style=""font-size:50px; font-weight:bold;""
                                ></p>
                                <div style=""width:240px; margin: auto;"">
                                    <img src=""images/D105.png"" style= ""width:200px""alt=""img"">
                                </div>
                            </div>","-80","","0","images/D105.png","","","","[""Coarse"",""Fine""]"
"","","","","","html-slider-response","108","205257","0.0-104.0","zrw07bgkyc","NaN","<div style=""width:500px;"">
                                <p style=""font-size:50px; font-weight:bold;""
                                ></p>
                                <div style=""width:240px; margin: auto;"">
                                    <img src=""images/D29.png"" style= ""width:200px""alt=""img"">
                                </div>
                            </div>","-74","","0","images/D29.png","","","","[""Coarse"",""Fine""]"
"","","","","","html-slider-response","109","216992","0.0-105.0","zrw07bgkyc","NaN","<div style=""width:500px;"">
                                <p style=""font-size:50px; font-weight:bold;""
                                ></p>
                                <div style=""width:240px; margin: auto;"">
                                    <img src=""images/D57.png"" style= ""width:200px""alt=""img"">
                                </div>
                            </div>","110","","0","images/D57.png","","","","[""Coarse"",""Fine""]"
"","","","","","html-slider-response","110","218865","0.0-106.0","zrw07bgkyc","NaN","<div style=""width:500px;"">
                                <p style=""font-size:50px; font-weight:bold;""
                                ></p>
                                <div style=""width:240px; margin: auto;"">
                                    <img src=""images/D75.png"" style= ""width:200px""alt=""img"">
                                </div>
                            </div>","113","","0","images/D75.png","","","","[""Coarse"",""Fine""]"
"","","","","","html-slider-response","111","224310","0.0-107.0","zrw07bgkyc","NaN","<div style=""width:500px;"">
                                <p style=""font-size:50px; font-weight:bold;""
                                ></p>
                                <div style=""width:240px; margin: auto;"">
                                    <img src=""images/D85.png"" style= ""width:200px""alt=""img"">
                                </div>
                            </div>","102","","0","images/D85.png","","","","[""Coarse"",""Fine""]"
"","","","","","html-slider-response","112","227082","0.0-108.0","zrw07bgkyc","NaN","<div style=""width:500px;"">
                                <p style=""font-size:50px; font-weight:bold;""
                                ></p>
                                <div style=""width:240px; margin: auto;"">
                                    <img src=""images/D16.png"" style= ""width:200px""alt=""img"">
                                </div>
                            </div>","105","","0","images/D16.png","","","","[""Coarse"",""Fine""]"
"","","","","","html-slider-response","113","228004","0.0-109.0","zrw07bgkyc","NaN","<div style=""width:500px;"">
                                <p style=""font-size:50px; font-weight:bold;""
                                ></p>
                                <div style=""width:240px; margin: auto;"">
                                    <img src=""images/D32.png"" style= ""width:200px""alt=""img"">
                                </div>
                            </div>","-92","","0","images/D32.png","","","","[""Coarse"",""Fine""]"
"","","","","","html-slider-response","114","228885","0.0-110.0","zrw07bgkyc","NaN","<div style=""width:500px;"">
                                <p style=""font-size:50px; font-weight:bold;""
                                ></p>
                                <div style=""width:240px; margin: auto;"">
                                    <img src=""images/D18.png"" style= ""width:200px""alt=""img"">
                                </div>
                            </div>","79","","0","images/D18.png","","","","[""Coarse"",""Fine""]"
"","","","","","html-slider-response","115","230830","0.0-111.0","zrw07bgkyc","NaN","<div style=""width:500px;"">
                                <p style=""font-size:50px; font-weight:bold;""
                                ></p>
                                <div style=""width:240px; margin: auto;"">
                                    <img src=""images/D66.png"" style= ""width:200px""alt=""img"">
                                </div>
                            </div>","-142","","0","images/D66.png","","","","[""Coarse"",""Fine""]"
"","","","","","html-slider-response","116","233726","0.0-112.0","zrw07bgkyc","NaN","<div style=""width:500px;"">
                                <p style=""font-size:50px; font-weight:bold;""
                                ></p>
                                <div style=""width:240px; margin: auto;"">
                                    <img src=""images/D79.png"" style= ""width:200px""alt=""img"">
                                </div>
                            </div>","110","","0","images/D79.png","","","","[""Coarse"",""Fine""]"
"","","","","","html-slider-response","117","238312","0.0-113.0","zrw07bgkyc","NaN","<div style=""width:500px;"">
                                <p style=""font-size:50px; font-weight:bold;""
                                ></p>
                                <div style=""width:240px; margin: auto;"">
                                    <img src=""images/D4.png"" style= ""width:200px""alt=""img"">
                                </div>
                            </div>","111","","0","images/D4.png","","","","[""Coarse"",""Fine""]"
"","","","","","html-slider-response","118","239409","0.0-114.0","zrw07bgkyc","NaN","<div style=""width:500px;"">
                                <p style=""font-size:50px; font-weight:bold;""
                                ></p>
                                <div style=""width:240px; margin: auto;"">
                                    <img src=""images/D94.png"" style= ""width:200px""alt=""img"">
                                </div>
                            </div>","-94","","0","images/D94.png","","","","[""Coarse"",""Fine""]"
"","","","","","html-slider-response","119","241195","0.0-115.0","zrw07bgkyc","NaN","<div style=""width:500px;"">
                                <p style=""font-size:50px; font-weight:bold;""
                                ></p>
                                <div style=""width:240px; margin: auto;"">
                                    <img src=""images/D53.png"" style= ""width:200px""alt=""img"">
                                </div>
                            </div>","80","","0","images/D53.png","","","","[""Coarse"",""Fine""]"
"","","","","","html-slider-response","120","242511","0.0-116.0","zrw07bgkyc","NaN","<div style=""width:500px;"">
                                <p style=""font-size:50px; font-weight:bold;""
                                ></p>
                                <div style=""width:240px; margin: auto;"">
                                    <img src=""images/D24.png"" style= ""width:200px""alt=""img"">
                                </div>
                            </div>","-118","","0","images/D24.png","","","","[""Coarse"",""Fine""]"
"","","","","","html-slider-response","121","243530","0.0-117.0","zrw07bgkyc","NaN","<div style=""width:500px;"">
                                <p style=""font-size:50px; font-weight:bold;""
                                ></p>
                                <div style=""width:240px; margin: auto;"">
                                    <img src=""images/D104.png"" style= ""width:200px""alt=""img"">
                                </div>
                            </div>","83","","0","images/D104.png","","","","[""Coarse"",""Fine""]"
"","","","","","html-slider-response","122","244726","0.0-118.0","zrw07bgkyc","NaN","<div style=""width:500px;"">
                                <p style=""font-size:50px; font-weight:bold;""
                                ></p>
                                <div style=""width:240px; margin: auto;"">
                                    <img src=""images/D21.png"" style= ""width:200px""alt=""img"">
                                </div>
                            </div>","-94","","0","images/D21.png","","","","[""Coarse"",""Fine""]"
"","","","","","html-slider-response","123","245779","0.0-119.0","zrw07bgkyc","NaN","<div style=""width:500px;"">
                                <p style=""font-size:50px; font-weight:bold;""
                                ></p>
                                <div style=""width:240px; margin: auto;"">
                                    <img src=""images/D26.png"" style= ""width:200px""alt=""img"">
                                </div>
                            </div>","-86","","0","images/D26.png","","","","[""Coarse"",""Fine""]"
"","","","","","html-slider-response","124","247020","0.0-120.0","zrw07bgkyc","NaN","<div style=""width:500px;"">
                                <p style=""font-size:50px; font-weight:bold;""
                                ></p>
                                <div style=""width:240px; margin: auto;"">
                                    <img src=""images/D83.png"" style= ""width:200px""alt=""img"">
                                </div>
                            </div>","84","","0","images/D83.png","","","","[""Coarse"",""Fine""]"
"","","","","","html-slider-response","125","254469","0.0-121.0","zrw07bgkyc","NaN","<div style=""width:500px;"">
                                <p style=""font-size:50px; font-weight:bold;""
                                ></p>
                                <div style=""width:240px; margin: auto;"">
                                    <img src=""images/D64.png"" style= ""width:200px""alt=""img"">
                                </div>
                            </div>","122","","0","images/D64.png","","","","[""Coarse"",""Fine""]"
"","","","","","html-slider-response","126","255413","0.0-122.0","zrw07bgkyc","NaN","<div style=""width:500px;"">
                                <p style=""font-size:50px; font-weight:bold;""
                                ></p>
                                <div style=""width:240px; margin: auto;"">
                                    <img src=""images/D82.png"" style= ""width:200px""alt=""img"">
                                </div>
                            </div>","84","","0","images/D82.png","","","","[""Coarse"",""Fine""]"
"","","","","","html-slider-response","127","257810","0.0-123.0","zrw07bgkyc","NaN","<div style=""width:500px;"">
                                <p style=""font-size:50px; font-weight:bold;""
                                ></p>
                                <div style=""width:240px; margin: auto;"">
                                    <img src=""images/D92.png"" style= ""width:200px""alt=""img"">
                                </div>
                            </div>","74","","0","images/D92.png","","","","[""Coarse"",""Fine""]"
"","","","","","html-slider-response","128","258915","0.0-124.0","zrw07bgkyc","NaN","<div style=""width:500px;"">
                                <p style=""font-size:50px; font-weight:bold;""
                                ></p>
                                <div style=""width:240px; margin: auto;"">
                                    <img src=""images/D3.png"" style= ""width:200px""alt=""img"">
                                </div>
                            </div>","-90","","0","images/D3.png","","","","[""Coarse"",""Fine""]"
"","","","","","html-slider-response","129","260794","0.0-125.0","zrw07bgkyc","NaN","<div style=""width:500px;"">
                                <p style=""font-size:50px; font-weight:bold;""
                                ></p>
                                <div style=""width:240px; margin: auto;"">
                                    <img src=""images/D14.png"" style= ""width:200px""alt=""img"">
                                </div>
                            </div>","-102","","0","images/D14.png","","","","[""Coarse"",""Fine""]"
"","","","","","html-slider-response","130","265421","0.0-126.0","zrw07bgkyc","NaN","<div style=""width:500px;"">
                                <p style=""font-size:50px; font-weight:bold;""
                                ></p>
                                <div style=""width:240px; margin: auto;"">
                                    <img src=""images/D8.png"" style= ""width:200px""alt=""img"">
                                </div>
                            </div>","96","","0","images/D8.png","","","","[""Coarse"",""Fine""]"
"","","","","","html-slider-response","131","272728","0.0-127.0","zrw07bgkyc","NaN","<div style=""width:500px;"">
                                <p style=""font-size:50px; font-weight:bold;""
                                ></p>
                                <div style=""width:240px; margin: auto;"">
                                    <img src=""images/D51.png"" style= ""width:200px""alt=""img"">
                                </div>
                            </div>","-92","","0","images/D51.png","","","","[""Coarse"",""Fine""]"
"","","","","","html-slider-response","132","274718","0.0-128.0","zrw07bgkyc","NaN","<div style=""width:500px;"">
                                <p style=""font-size:50px; font-weight:bold;""
                                ></p>
                                <div style=""width:240px; margin: auto;"">
                                    <img src=""images/D48.png"" style= ""width:200px""alt=""img"">
                                </div>
                            </div>","93","","0","images/D48.png","","","","[""Coarse"",""Fine""]"
"","","","","","html-slider-response","133","275579","0.0-129.0","zrw07bgkyc","NaN","<div style=""width:500px;"">
                                <p style=""font-size:50px; font-weight:bold;""
                                ></p>
                                <div style=""width:240px; margin: auto;"">
                                    <img src=""images/D77.png"" style= ""width:200px""alt=""img"">
                                </div>
                            </div>","-104","","0","images/D77.png","","","","[""Coarse"",""Fine""]"
"","","","","","html-slider-response","134","276519","0.0-130.0","zrw07bgkyc","NaN","<div style=""width:500px;"">
                                <p style=""font-size:50px; font-weight:bold;""
                                ></p>
                                <div style=""width:240px; margin: auto;"">
                                    <img src=""images/D52.png"" style= ""width:200px""alt=""img"">
                                </div>
                            </div>","57","","0","images/D52.png","","","","[""Coarse"",""Fine""]"
"","","","","","html-slider-response","135","277278","0.0-131.0","zrw07bgkyc","NaN","<div style=""width:500px;"">
                                <p style=""font-size:50px; font-weight:bold;""
                                ></p>
                                <div style=""width:240px; margin: auto;"">
                                    <img src=""images/D56.png"" style= ""width:200px""alt=""img"">
                                </div>
                            </div>","-130","","0","images/D56.png","","","","[""Coarse"",""Fine""]"
"","","","","","html-slider-response","136","278598","0.0-132.0","zrw07bgkyc","NaN","<div style=""width:500px;"">
                                <p style=""font-size:50px; font-weight:bold;""
                                ></p>
                                <div style=""width:240px; margin: auto;"">
                                    <img src=""images/D34.png"" style= ""width:200px""alt=""img"">
                                </div>
                            </div>","143","","0","images/D34.png","","","","[""Coarse"",""Fine""]"
"","","","","","html-slider-response","137","280061","0.0-133.0","zrw07bgkyc","NaN","<div style=""width:500px;"">
                                <p style=""font-size:50px; font-weight:bold;""
                                ></p>
                                <div style=""width:240px; margin: auto;"">
                                    <img src=""images/D81.png"" style= ""width:200px""alt=""img"">
                                </div>
                            </div>","-125","","0","images/D81.png","","","","[""Coarse"",""Fine""]"
"","","","","","html-slider-response","138","280993","0.0-134.0","zrw07bgkyc","NaN","<div style=""width:500px;"">
                                <p style=""font-size:50px; font-weight:bold;""
                                ></p>
                                <div style=""width:240px; margin: auto;"">
                                    <img src=""images/D76.png"" style= ""width:200px""alt=""img"">
                                </div>
                            </div>","118","","0","images/D76.png","","","","[""Coarse"",""Fine""]"
"","","","","","html-slider-response","139","281825","0.0-135.0","zrw07bgkyc","NaN","<div style=""width:500px;"">
                                <p style=""font-size:50px; font-weight:bold;""
                                ></p>
                                <div style=""width:240px; margin: auto;"">
                                    <img src=""images/D65.png"" style= ""width:200px""alt=""img"">
                                </div>
                            </div>","2","","0","images/D65.png","","","","[""Coarse"",""Fine""]"
"","","","","","html-slider-response","140","282631","0.0-136.0","zrw07bgkyc","NaN","<div style=""width:500px;"">
                                <p style=""font-size:50px; font-weight:bold;""
                                ></p>
                                <div style=""width:240px; margin: auto;"">
                                    <img src=""images/D49.png"" style= ""width:200px""alt=""img"">
                                </div>
                            </div>","170","","0","images/D49.png","","","","[""Coarse"",""Fine""]"
"","","","","","html-slider-response","141","284143","0.0-137.0","zrw07bgkyc","NaN","<div style=""width:500px;"">
                                <p style=""font-size:50px; font-weight:bold;""
                                ></p>
                                <div style=""width:240px; margin: auto;"">
                                    <img src=""images/D95.png"" style= ""width:200px""alt=""img"">
                                </div>
                            </div>","-106","","0","images/D95.png","","","","[""Coarse"",""Fine""]"
"","","","","","html-slider-response","142","285361","0.0-138.0","zrw07bgkyc","NaN","<div style=""width:500px;"">
                                <p style=""font-size:50px; font-weight:bold;""
                                ></p>
                                <div style=""width:240px; margin: auto;"">
                                    <img src=""images/D36.png"" style= ""width:200px""alt=""img"">
                                </div>
                            </div>","122","","0","images/D36.png","","","","[""Coarse"",""Fine""]"
"","","","","","html-slider-response","143","286768","0.0-139.0","zrw07bgkyc","NaN","<div style=""width:500px;"">
                                <p style=""font-size:50px; font-weight:bold;""
                                ></p>
                                <div style=""width:240px; margin: auto;"">
                                    <img src=""images/D11.png"" style= ""width:200px""alt=""img"">
                                </div>
                            </div>","-160","","0","images/D11.png","","","","[""Coarse"",""Fine""]"
"","","","","","html-button-response","144","288710","0.0-140.0","zrw07bgkyc","1438","You have completed the second block of trials out of six. Please click 'Continue' when you are ready proceed.","0","","","","","","",""
"","","","","","html-button-response","145","290376","0.0-141.0","zrw07bgkyc","1665","In the following trials, you will be asked to rate textures on the scale <b>Rough</b> versus <b>Smooth</b>. Please click 'Continue' when you are ready proceed.","0","","","","","","",""
"","","","","","html-slider-response","146","291587","0.0-142.0","zrw07bgkyc","NaN","<div style=""width:500px;"">
                                <p style=""font-size:50px; font-weight:bold;""
                                ></p>
                                <div style=""width:240px; margin: auto;"">
                                    <img src=""images/D3.png"" style= ""width:200px""alt=""img"">
                                </div>
                            </div>","142","","0","images/D3.png","","","","[""Rough"",""Smooth""]"
"","","","","","html-slider-response","147","293227","0.0-143.0","zrw07bgkyc","NaN","<div style=""width:500px;"">
                                <p style=""font-size:50px; font-weight:bold;""
                                ></p>
                                <div style=""width:240px; margin: auto;"">
                                    <img src=""images/D75.png"" style= ""width:200px""alt=""img"">
                                </div>
                            </div>","-138","","0","images/D75.png","","","","[""Rough"",""Smooth""]"
"","","","","","html-slider-response","148","295043","0.0-144.0","zrw07bgkyc","NaN","<div style=""width:500px;"">
                                <p style=""font-size:50px; font-weight:bold;""
                                ></p>
                                <div style=""width:240px; margin: auto;"">
                                    <img src=""images/D111.png"" style= ""width:200px""alt=""img"">
                                </div>
                            </div>","58","","0","images/D111.png","","","","[""Rough"",""Smooth""]"
"","","","","","html-slider-response","149","296218","0.0-145.0","zrw07bgkyc","NaN","<div style=""width:500px;"">
                                <p style=""font-size:50px; font-weight:bold;""
                                ></p>
                                <div style=""width:240px; margin: auto;"">
                                    <img src=""images/D35.png"" style= ""width:200px""alt=""img"">
                                </div>
                            </div>","-20","","0","images/D35.png","","","","[""Rough"",""Smooth""]"
"","","","","","html-slider-response","150","297054","0.0-146.0","zrw07bgkyc","NaN","<div style=""width:500px;"">
                                <p style=""font-size:50px; font-weight:bold;""
                                ></p>
                                <div style=""width:240px; margin: auto;"">
                                    <img src=""images/D21.png"" style= ""width:200px""alt=""img"">
                                </div>
                            </div>","74","","0","images/D21.png","","","","[""Rough"",""Smooth""]"
"","","","","","html-slider-response","151","298978","0.0-147.0","zrw07bgkyc","NaN","<div style=""width:500px;"">
                                <p style=""font-size:50px; font-weight:bold;""
                                ></p>
                                <div style=""width:240px; margin: auto;"">
                                    <img src=""images/D57.png"" style= ""width:200px""alt=""img"">
                                </div>
                            </div>","-143","","0","images/D57.png","","","","[""Rough"",""Smooth""]"
"","","","","","html-slider-response","152","300253","0.0-148.0","zrw07bgkyc","NaN","<div style=""width:500px;"">
                                <p style=""font-size:50px; font-weight:bold;""
                                ></p>
                                <div style=""width:240px; margin: auto;"">
                                    <img src=""images/D83.png"" style= ""width:200px""alt=""img"">
                                </div>
                            </div>","110","","0","images/D83.png","","","","[""Rough"",""Smooth""]"
"","","","","","html-slider-response","153","301441","0.0-149.0","zrw07bgkyc","NaN","<div style=""width:500px;"">
                                <p style=""font-size:50px; font-weight:bold;""
                                ></p>
                                <div style=""width:240px; margin: auto;"">
                                    <img src=""images/D18.png"" style= ""width:200px""alt=""img"">
                                </div>
                            </div>","-93","","0","images/D18.png","","","","[""Rough"",""Smooth""]"
"","","","","","html-slider-response","154","302794","0.0-150.0","zrw07bgkyc","NaN","<div style=""width:500px;"">
                                <p style=""font-size:50px; font-weight:bold;""
                                ></p>
                                <div style=""width:240px; margin: auto;"">
                                    <img src=""images/D37.png"" style= ""width:200px""alt=""img"">
                                </div>
                            </div>","133","","0","images/D37.png","","","","[""Rough"",""Smooth""]"
"","","","","","html-slider-response","155","304008","0.0-151.0","zrw07bgkyc","NaN","<div style=""width:500px;"">
                                <p style=""font-size:50px; font-weight:bold;""
                                ></p>
                                <div style=""width:240px; margin: auto;"">
                                    <img src=""images/D55.png"" style= ""width:200px""alt=""img"">
                                </div>
                            </div>","-96","","0","images/D55.png","","","","[""Rough"",""Smooth""]"
"","","","","","html-slider-response","156","307185","0.0-152.0","zrw07bgkyc","NaN","<div style=""width:500px;"">
                                <p style=""font-size:50px; font-weight:bold;""
                                ></p>
                                <div style=""width:240px; margin: auto;"">
                                    <img src=""images/D85.png"" style= ""width:200px""alt=""img"">
                                </div>
                            </div>","96","","0","images/D85.png","","","","[""Rough"",""Smooth""]"
"","","","","","html-slider-response","157","309195","0.0-153.0","zrw07bgkyc","NaN","<div style=""width:500px;"">
                                <p style=""font-size:50px; font-weight:bold;""
                                ></p>
                                <div style=""width:240px; margin: auto;"">
                                    <img src=""images/D29.png"" style= ""width:200px""alt=""img"">
                                </div>
                            </div>","-108","","0","images/D29.png","","","","[""Rough"",""Smooth""]"
"","","","","","html-slider-response","158","309936","0.0-154.0","zrw07bgkyc","NaN","<div style=""width:500px;"">
                                <p style=""font-size:50px; font-weight:bold;""
                                ></p>
                                <div style=""width:240px; margin: auto;"">
                                    <img src=""images/D77.png"" style= ""width:200px""alt=""img"">
                                </div>
                            </div>","112","","0","images/D77.png","","","","[""Rough"",""Smooth""]"
"","","","","","html-slider-response","159","311644","0.0-155.0","zrw07bgkyc","NaN","<div style=""width:500px;"">
                                <p style=""font-size:50px; font-weight:bold;""
                                ></p>
                                <div style=""width:240px; margin: auto;"">
                                    <img src=""images/D1.png"" style= ""width:200px""alt=""img"">
                                </div>
                            </div>","-131","","0","images/D1.png","","","","[""Rough"",""Smooth""]"
"","","","","","html-slider-response","160","312428","0.0-156.0","zrw07bgkyc","NaN","<div style=""width:500px;"">
                                <p style=""font-size:50px; font-weight:bold;""
                                ></p>
                                <div style=""width:240px; margin: auto;"">
                                    <img src=""images/D68.png"" style= ""width:200px""alt=""img"">
                                </div>
                            </div>","186","","0","images/D68.png","","","","[""Rough"",""Smooth""]"
"","","","","","html-slider-response","161","314023","0.0-157.0","zrw07bgkyc","NaN","<div style=""width:500px;"">
                                <p style=""font-size:50px; font-weight:bold;""
                                ></p>
                                <div style=""width:240px; margin: auto;"">
                                    <img src=""images/D66.png"" style= ""width:200px""alt=""img"">
                                </div>
                            </div>","-98","","0","images/D66.png","","","","[""Rough"",""Smooth""]"
"","","","","","html-slider-response","162","314828","0.0-158.0","zrw07bgkyc","NaN","<div style=""width:500px;"">
                                <p style=""font-size:50px; font-weight:bold;""
                                ></p>
                                <div style=""width:240px; margin: auto;"">
                                    <img src=""images/D104.png"" style= ""width:200px""alt=""img"">
                                </div>
                            </div>","89","","0","images/D104.png","","","","[""Rough"",""Smooth""]"
"","","","","","html-slider-response","163","315693","0.0-159.0","zrw07bgkyc","NaN","<div style=""width:500px;"">
                                <p style=""font-size:50px; font-weight:bold;""
                                ></p>
                                <div style=""width:240px; margin: auto;"">
                                    <img src=""images/D20.png"" style= ""width:200px""alt=""img"">
                                </div>
                            </div>","-93","","0","images/D20.png","","","","[""Rough"",""Smooth""]"
"","","","","","html-slider-response","164","316420","0.0-160.0","zrw07bgkyc","NaN","<div style=""width:500px;"">
                                <p style=""font-size:50px; font-weight:bold;""
                                ></p>
                                <div style=""width:240px; margin: auto;"">
                                    <img src=""images/D8.png"" style= ""width:200px""alt=""img"">
                                </div>
                            </div>","102","","0","images/D8.png","","","","[""Rough"",""Smooth""]"
"","","","","","html-slider-response","165","317207","0.0-161.0","zrw07bgkyc","NaN","<div style=""width:500px;"">
                                <p style=""font-size:50px; font-weight:bold;""
                                ></p>
                                <div style=""width:240px; margin: auto;"">
                                    <img src=""images/D6.png"" style= ""width:200px""alt=""img"">
                                </div>
                            </div>","-112","","0","images/D6.png","","","","[""Rough"",""Smooth""]"
"","","","","","html-slider-response","166","317943","0.0-162.0","zrw07bgkyc","NaN","<div style=""width:500px;"">
                                <p style=""font-size:50px; font-weight:bold;""
                                ></p>
                                <div style=""width:240px; margin: auto;"">
                                    <img src=""images/D16.png"" style= ""width:200px""alt=""img"">
                                </div>
                            </div>","102","","0","images/D16.png","","","","[""Rough"",""Smooth""]"
"","","","","","html-slider-response","167","318685","0.0-163.0","zrw07bgkyc","NaN","<div style=""width:500px;"">
                                <p style=""font-size:50px; font-weight:bold;""
                                ></p>
                                <div style=""width:240px; margin: auto;"">
                                    <img src=""images/D80.png"" style= ""width:200px""alt=""img"">
                                </div>
                            </div>","-106","","0","images/D80.png","","","","[""Rough"",""Smooth""]"
"","","","","","html-slider-response","168","319527","0.0-164.0","zrw07bgkyc","NaN","<div style=""width:500px;"">
                                <p style=""font-size:50px; font-weight:bold;""
                                ></p>
                                <div style=""width:240px; margin: auto;"">
                                    <img src=""images/D25.png"" style= ""width:200px""alt=""img"">
                                </div>
                            </div>","-100","","0","images/D25.png","","","","[""Rough"",""Smooth""]"
"","","","","","html-slider-response","169","320223","0.0-165.0","zrw07bgkyc","NaN","<div style=""width:500px;"">
                                <p style=""font-size:50px; font-weight:bold;""
                                ></p>
                                <div style=""width:240px; margin: auto;"">
                                    <img src=""images/D96.png"" style= ""width:200px""alt=""img"">
                                </div>
                            </div>","128","","0","images/D96.png","","","","[""Rough"",""Smooth""]"
"","","","","","html-slider-response","170","321152","0.0-166.0","zrw07bgkyc","NaN","<div style=""width:500px;"">
                                <p style=""font-size:50px; font-weight:bold;""
                                ></p>
                                <div style=""width:240px; margin: auto;"">
                                    <img src=""images/D56.png"" style= ""width:200px""alt=""img"">
                                </div>
                            </div>","-95","","0","images/D56.png","","","","[""Rough"",""Smooth""]"
"","","","","","html-slider-response","171","322027","0.0-167.0","zrw07bgkyc","NaN","<div style=""width:500px;"">
                                <p style=""font-size:50px; font-weight:bold;""
                                ></p>
                                <div style=""width:240px; margin: auto;"">
                                    <img src=""images/D64.png"" style= ""width:200px""alt=""img"">
                                </div>
                            </div>","-115","","0","images/D64.png","","","","[""Rough"",""Smooth""]"
"","","","","","html-slider-response","172","323016","0.0-168.0","zrw07bgkyc","NaN","<div style=""width:500px;"">
                                <p style=""font-size:50px; font-weight:bold;""
                                ></p>
                                <div style=""width:240px; margin: auto;"">
                                    <img src=""images/D32.png"" style= ""width:200px""alt=""img"">
                                </div>
                            </div>","122","","0","images/D32.png","","","","[""Rough"",""Smooth""]"
"","","","","","html-slider-response","173","324025","0.0-169.0","zrw07bgkyc","NaN","<div style=""width:500px;"">
                                <p style=""font-size:50px; font-weight:bold;""
                                ></p>
                                <div style=""width:240px; margin: auto;"">
                                    <img src=""images/D53.png"" style= ""width:200px""alt=""img"">
                                </div>
                            </div>","-130","","0","images/D53.png","","","","[""Rough"",""Smooth""]"
"","","","","","html-slider-response","174","325117","0.0-170.0","zrw07bgkyc","NaN","<div style=""width:500px;"">
                                <p style=""font-size:50px; font-weight:bold;""
                                ></p>
                                <div style=""width:240px; margin: auto;"">
                                    <img src=""images/D17.png"" style= ""width:200px""alt=""img"">
                                </div>
                            </div>","126","","0","images/D17.png","","","","[""Rough"",""Smooth""]"
"","","","","","html-slider-response","175","326124","0.0-171.0","zrw07bgkyc","NaN","<div style=""width:500px;"">
                                <p style=""font-size:50px; font-weight:bold;""
                                ></p>
                                <div style=""width:240px; margin: auto;"">
                                    <img src=""images/D106.png"" style= ""width:200px""alt=""img"">
                                </div>
                            </div>","-147","","0","images/D106.png","","","","[""Rough"",""Smooth""]"
"","","","","","html-slider-response","176","327351","0.0-172.0","zrw07bgkyc","NaN","<div style=""width:500px;"">
                                <p style=""font-size:50px; font-weight:bold;""
                                ></p>
                                <div style=""width:240px; margin: auto;"">
                                    <img src=""images/D94.png"" style= ""width:200px""alt=""img"">
                                </div>
                            </div>","-133","","0","images/D94.png","","","","[""Rough"",""Smooth""]"
"","","","","","html-slider-response","177","328219","0.0-173.0","zrw07bgkyc","NaN","<div style=""width:500px;"">
                                <p style=""font-size:50px; font-weight:bold;""
                                ></p>
                                <div style=""width:240px; margin: auto;"">
                                    <img src=""images/D47.png"" style= ""width:200px""alt=""img"">
                                </div>
                            </div>","98","","0","images/D47.png","","","","[""Rough"",""Smooth""]"
"","","","","","html-slider-response","178","329100","0.0-174.0","zrw07bgkyc","NaN","<div style=""width:500px;"">
                                <p style=""font-size:50px; font-weight:bold;""
                                ></p>
                                <div style=""width:240px; margin: auto;"">
                                    <img src=""images/D34.png"" style= ""width:200px""alt=""img"">
                                </div>
                            </div>","143","","0","images/D34.png","","","","[""Rough"",""Smooth""]"
"","","","","","html-slider-response","179","330027","0.0-175.0","zrw07bgkyc","NaN","<div style=""width:500px;"">
                                <p style=""font-size:50px; font-weight:bold;""
                                ></p>
                                <div style=""width:240px; margin: auto;"">
                                    <img src=""images/D95.png"" style= ""width:200px""alt=""img"">
                                </div>
                            </div>","-124","","0","images/D95.png","","","","[""Rough"",""Smooth""]"
"","","","","","html-slider-response","180","331020","0.0-176.0","zrw07bgkyc","NaN","<div style=""width:500px;"">
                                <p style=""font-size:50px; font-weight:bold;""
                                ></p>
                                <div style=""width:240px; margin: auto;"">
                                    <img src=""images/D49.png"" style= ""width:200px""alt=""img"">
                                </div>
                            </div>","-148","","0","images/D49.png","","","","[""Rough"",""Smooth""]"
"","","","","","html-slider-response","181","331896","0.0-177.0","zrw07bgkyc","NaN","<div style=""width:500px;"">
                                <p style=""font-size:50px; font-weight:bold;""
                                ></p>
                                <div style=""width:240px; margin: auto;"">
                                    <img src=""images/D81.png"" style= ""width:200px""alt=""img"">
                                </div>
                            </div>","110","","0","images/D81.png","","","","[""Rough"",""Smooth""]"
"","","","","","html-slider-response","182","334103","0.0-178.0","zrw07bgkyc","NaN","<div style=""width:500px;"">
                                <p style=""font-size:50px; font-weight:bold;""
                                ></p>
                                <div style=""width:240px; margin: auto;"">
                                    <img src=""images/D46.png"" style= ""width:200px""alt=""img"">
                                </div>
                            </div>","-128","","0","images/D46.png","","","","[""Rough"",""Smooth""]"
"","","","","","html-slider-response","183","335061","0.0-179.0","zrw07bgkyc","NaN","<div style=""width:500px;"">
                                <p style=""font-size:50px; font-weight:bold;""
                                ></p>
                                <div style=""width:240px; margin: auto;"">
                                    <img src=""images/D19.png"" style= ""width:200px""alt=""img"">
                                </div>
                            </div>","138","","0","images/D19.png","","","","[""Rough"",""Smooth""]"
"","","","","","html-slider-response","184","336063","0.0-180.0","zrw07bgkyc","NaN","<div style=""width:500px;"">
                                <p style=""font-size:50px; font-weight:bold;""
                                ></p>
                                <div style=""width:240px; margin: auto;"">
                                    <img src=""images/D36.png"" style= ""width:200px""alt=""img"">
                                </div>
                            </div>","-143","","0","images/D36.png","","","","[""Rough"",""Smooth""]"
"","","","","","html-slider-response","185","336943","0.0-181.0","zrw07bgkyc","NaN","<div style=""width:500px;"">
                                <p style=""font-size:50px; font-weight:bold;""
                                ></p>
                                <div style=""width:240px; margin: auto;"">
                                    <img src=""images/D22.png"" style= ""width:200px""alt=""img"">
                                </div>
                            </div>","98","","0","images/D22.png","","","","[""Rough"",""Smooth""]"
"","","","","","html-slider-response","186","337916","0.0-182.0","zrw07bgkyc","NaN","<div style=""width:500px;"">
                                <p style=""font-size:50px; font-weight:bold;""
                                ></p>
                                <div style=""width:240px; margin: auto;"">
                                    <img src=""images/D76.png"" style= ""width:200px""alt=""img"">
                                </div>
                            </div>","-110","","0","images/D76.png","","","","[""Rough"",""Smooth""]"
"","","","","","html-slider-response","187","340837","0.0-183.0","zrw07bgkyc","NaN","<div style=""width:500px;"">
                                <p style=""font-size:50px; font-weight:bold;""
                                ></p>
                                <div style=""width:240px; margin: auto;"">
