"success","timeout","failed_images","failed_audio","failed_video","trial_type","trial_index","time_elapsed","internal_node_id","subject_id","rt","stimulus","response","question_order","slider_start","image_path","practiceTrial","practiceTrialNum","correct","slider_labels"
"true","false","[]","[]","[]","preload","0","1661","0.0-0.0","0nv2u1py28","","","","","","","","","",""
"","","","","","html-button-response","1","3322","0.0-1.0","0nv2u1py28","1660","<div style='text-align:center; font-size:20px; line-height:25px; width: 1200px;'>
                Welcome to our experiment! <br>
                <br>At the bottom of this screen, you will see a button that says 'Begin Experiment.
                <br>Please only click that button when you are ready to complete the 25 minute experiment in one sitting. <br>
                <br> Once you click that button, it will not be possible to restart the experiment. <br><br>","0","","","","","","",""
"true","","","","","fullscreen","2","5257","0.0-2.0","0nv2u1py28","931","","","","","","","","",""
"","","","","","survey-multi-select","3","18403","0.0-3.0","0nv2u1py28","13141","","{""Consent"":[""<strong>I consent</strong>""]}","[0]","","","","","",""
"","","","","","html-button-response","4","20485","0.0-4.0","0nv2u1py28","2080","Welcome! <p> This experiment involves two parts: demographic information, followed by the experimental task.<p> It will take about 25 minutes to complete both parts.","0","","","","","","",""
"","","","","","survey-text","5","28207","0.0-5.0","0nv2u1py28","7719","","{""Age"":""19"",""Gender"":""male"",""Race/ethnicity"":""white""}","","","","","","",""
"","","","","","html-slider-response","6","111522","0.0-6.0","0nv2u1py28","83314","
                <div style='text-align:center; height: auto; margin-left=-100px; margin-bottom: -20px; font-size:20px; line-height:5px; width: 1200px;'>
                    <br>During this experiment, you will see a series of textures, one at a time, like the ones below: 
                </div>
                    <br>
                    <br>
                    <img src=""anchoring_visual_textures.png"" alt=""img"" style=""max-width:1200px; margin-left: -10px;"">
                </div>
                <div style=""clear: both;""></div>
                </div>
                    <div style='text-align:center; margin-left=-100px; font-size:20px; line-height:20px; width: 1200px; margin-top: -50px;'>
                    
                    <br> For each texture, you will be asked to rate where you think it falls on each of the response scales with the following endpoints:
                    </div>
                            <div style=""text-align: center; width: 1400px; "">
                                <p style=""font-size:20px; line-height:5px; ""><b>Stripey</b> versus <b>Blobby</b></p>
                                <p style=""font-size:20px; line-height:5px; ""><b>Rectangular</b> versus <b>Rounded</b></p>
                                <p style=""font-size:20px;line-height:5px;""><b>Fine</b> versus <b>Coarse</b></p>
                                <p style=""font-size:20px;line-height:5px; ""><b>Smooth</b> versus <b>Rough</b></p>
                                <p style=""font-size:20px;line-height:5px; ""><b>Non-Random</b> versus <b>Random</b></p>
                                <p style=""font-size:20px;line-height:5px;""><b>Soft</b> versus <b>Hard</b></p>
                            </div>
                            <div style='text-align:center; font-size:20px; line-height:20px; width: 1400px;'>
                    
                    Each trial will include one texture and one response scale. You will be asked to make your rating by sliding the cursor along a slider response scale like the one below.
                    <br><br> Before beginning, please look at the textures and scales. For each scale, think about the texture you associate most with the left endpoint. When you see that texture for that response scale, please click near the left of the scale.
                    <br><br> Now, please think about the texture you associate most with the right endpoint of each scale. When you see that texture for that response scale, please click near the right of the scale. 
                    <br><br> If you think a texture is not strongly associated with either endpoint of the scale, please click near the midpoint of the scale. Please use the full range of the scale. 
                    <br><br> You will be asked to rate each texture for a given scale before moving on to the next scale.
                    <br><br> Please press the 'Continue' button for instructions on how to use the slider.                     <br><br>
                ","null","","0","visual_textures_anchoring.png","true","","",""
"","","","","","html-button-response","7","113342","0.0-7.0","0nv2u1py28","1819","<div style=""width:1200px; margin-top:-150px;""><p style=""text-align:center; font-size:24px;"">To move the slider, click and drag your cursor to the location of the scale where you would like to make your rating and then let go. <br><br> When you let go of the slider, your response will be recorded and the next trial will begin. <br><br><br>
                We are interested in your initial impressions of each texture and scale, so please go with your first intuition. <br><br>
                Before you begin the experiment, there will be four training trials for you to practice using the scale. <br><br><br><br></div>
                <div style=""width:1200px;""><p style=""text-align:center; font-size:20px;"">When you are ready to start the training trials, please click ""Continue"".</p></div>","0","","","","","","",""
"","","","","","html-slider-response","8","116165","0.0-8.0-0.0","0nv2u1py28","NaN","<div style=""width:500px;"">
                                <p style=""font-size:25px;"">Please move the slider all the way to the <br> right endpoint of the scale</p>

                                </div>
                            </div>","200","","0","","true","0","true",""
"","","","","","html-button-response","9","120553","0.0-8.0-1.0","0nv2u1py28","3883","<p align='center'><b>Good job!</b> Click on 'Continue' to proceed.</p>","0","","","","","","",""
"","","","","","html-slider-response","10","123232","0.0-9.0-0.0","0nv2u1py28","NaN","<div style=""width:500px;"">
                                <p style=""font-size:25px;"">Please move the slider all the way to the <br> left endpoint of the scale</p>

                                </div>
                            </div>","-200","","0","","true","1","true",""
"","","","","","html-button-response","11","129575","0.0-9.0-1.0","0nv2u1py28","5840","<p align='center'><b>Good job!</b> Click on 'Continue' to proceed.</p>","0","","","","","","",""
"","","","","","html-slider-response","12","134833","0.0-10.0-0.0","0nv2u1py28","NaN","<div style=""width:500px;"">
                                <p style=""font-size:25px;"">Please move the slider halfway between the center and right endpoint of the scale</p>

                                </div>
                            </div>","102","","0","","true","2","true",""
"","","","","","html-button-response","13","136755","0.0-10.0-1.0","0nv2u1py28","1417","<p align='center'><b>Good job!</b> Click on 'Continue' to proceed.</p>","0","","","","","","",""
"","","","","","html-slider-response","14","138852","0.0-11.0-0.0","0nv2u1py28","NaN","<div style=""width:500px;"">
                                <p style=""font-size:25px;"">Please move the slider halfway between the center and left endpoint of the scale</p>

                                </div>
                            </div>","-110","","0","","true","3","true",""
"","","","","","html-button-response","15","140788","0.0-11.0-1.0","0nv2u1py28","1432","<p align='center'><b>Good job!</b> Click on 'Continue' to proceed.</p>","0","","","","","","",""
"","","","","","html-button-response","16","143338","0.0-12.0","0nv2u1py28","2549","<div style=""width:800px; margin-top:-300px;""><p style=""text-align:center; font-size:22px; line-height:25px;""""> Great job! You've completed the practice trials.</div>
                     <div style=""width:800px; margin-top:-20px;""><p style=""text-align:center""><br><br> In the following trials, you will be asked to rate textures on each scale one-by-one. <br> You will be given opportunities to take breaks when you have completed each block of trials. There are six total blocks of trials. <br><br> Please click continue to begin the main task.<br><br><br> </div>","0","","","","","","",""
"","","","","","html-button-response","17","144205","0.0-13.0","0nv2u1py28","866","In the following trials, you will be asked to rate textures on the scale <b>Soft</b> versus <b>Hard</b>. Please click 'Continue' when you are ready proceed.","0","","","","","","",""
"","","","","","html-slider-response","18","146715","0.0-14.0","0nv2u1py28","NaN","<div style=""width:500px;"">
                                <p style=""font-size:50px; font-weight:bold;""
                                ></p>
                                <div style=""width:240px; margin: auto;"">
                                    <img src=""images/D94.png"" style= ""width:200px""alt=""img"">
                                </div>
                            </div>","-200","","0","images/D94.png","","","","[""Hard"",""Soft""]"
"","","","","","html-slider-response","19","149081","0.0-15.0","0nv2u1py28","NaN","<div style=""width:500px;"">
                                <p style=""font-size:50px; font-weight:bold;""
                                ></p>
                                <div style=""width:240px; margin: auto;"">
                                    <img src=""images/D46.png"" style= ""width:200px""alt=""img"">
                                </div>
                            </div>","59","","0","images/D46.png","","","","[""Hard"",""Soft""]"
"","","","","","html-slider-response","20","152251","0.0-16.0","0nv2u1py28","NaN","<div style=""width:500px;"">
                                <p style=""font-size:50px; font-weight:bold;""
                                ></p>
                                <div style=""width:240px; margin: auto;"">
                                    <img src=""images/D14.png"" style= ""width:200px""alt=""img"">
                                </div>
                            </div>","-60","","0","images/D14.png","","","","[""Hard"",""Soft""]"
"","","","","","html-slider-response","21","154221","0.0-17.0","0nv2u1py28","NaN","<div style=""width:500px;"">
                                <p style=""font-size:50px; font-weight:bold;""
                                ></p>
                                <div style=""width:240px; margin: auto;"">
                                    <img src=""images/D83.png"" style= ""width:200px""alt=""img"">
                                </div>
                            </div>","-49","","0","images/D83.png","","","","[""Hard"",""Soft""]"
"","","","","","html-slider-response","22","156018","0.0-18.0","0nv2u1py28","NaN","<div style=""width:500px;"">
                                <p style=""font-size:50px; font-weight:bold;""
                                ></p>
                                <div style=""width:240px; margin: auto;"">
                                    <img src=""images/D111.png"" style= ""width:200px""alt=""img"">
                                </div>
                            </div>","41","","0","images/D111.png","","","","[""Hard"",""Soft""]"
"","","","","","html-slider-response","23","157984","0.0-19.0","0nv2u1py28","NaN","<div style=""width:500px;"">
                                <p style=""font-size:50px; font-weight:bold;""
                                ></p>
                                <div style=""width:240px; margin: auto;"">
                                    <img src=""images/D1.png"" style= ""width:200px""alt=""img"">
                                </div>
                            </div>","-108","","0","images/D1.png","","","","[""Hard"",""Soft""]"
"","","","","","html-slider-response","24","159815","0.0-20.0","0nv2u1py28","NaN","<div style=""width:500px;"">
                                <p style=""font-size:50px; font-weight:bold;""
                                ></p>
                                <div style=""width:240px; margin: auto;"">
                                    <img src=""images/D74.png"" style= ""width:200px""alt=""img"">
                                </div>
                            </div>","34","","0","images/D74.png","","","","[""Hard"",""Soft""]"
"","","","","","html-slider-response","25","161237","0.0-21.0","0nv2u1py28","NaN","<div style=""width:500px;"">
                                <p style=""font-size:50px; font-weight:bold;""
                                ></p>
                                <div style=""width:240px; margin: auto;"">
                                    <img src=""images/D102.png"" style= ""width:200px""alt=""img"">
                                </div>
                            </div>","-63","","0","images/D102.png","","","","[""Hard"",""Soft""]"
"","","","","","html-slider-response","26","162849","0.0-22.0","0nv2u1py28","NaN","<div style=""width:500px;"">
                                <p style=""font-size:50px; font-weight:bold;""
                                ></p>
                                <div style=""width:240px; margin: auto;"">
                                    <img src=""images/D6.png"" style= ""width:200px""alt=""img"">
                                </div>
                            </div>","106","","0","images/D6.png","","","","[""Hard"",""Soft""]"
"","","","","","html-slider-response","27","165166","0.0-23.0","0nv2u1py28","NaN","<div style=""width:500px;"">
                                <p style=""font-size:50px; font-weight:bold;""
                                ></p>
                                <div style=""width:240px; margin: auto;"">
                                    <img src=""images/D22.png"" style= ""width:200px""alt=""img"">
                                </div>
                            </div>","128","","0","images/D22.png","","","","[""Hard"",""Soft""]"
"","","","","","html-slider-response","28","166648","0.0-24.0","0nv2u1py28","NaN","<div style=""width:500px;"">
                                <p style=""font-size:50px; font-weight:bold;""
                                ></p>
                                <div style=""width:240px; margin: auto;"">
                                    <img src=""images/D20.png"" style= ""width:200px""alt=""img"">
                                </div>
                            </div>","73","","0","images/D20.png","","","","[""Hard"",""Soft""]"
"","","","","","html-slider-response","29","168148","0.0-25.0","0nv2u1py28","NaN","<div style=""width:500px;"">
                                <p style=""font-size:50px; font-weight:bold;""
                                ></p>
                                <div style=""width:240px; margin: auto;"">
                                    <img src=""images/D32.png"" style= ""width:200px""alt=""img"">
                                </div>
                            </div>","93","","0","images/D32.png","","","","[""Hard"",""Soft""]"
"","","","","","html-slider-response","30","169672","0.0-26.0","0nv2u1py28","NaN","<div style=""width:500px;"">
                                <p style=""font-size:50px; font-weight:bold;""
                                ></p>
                                <div style=""width:240px; margin: auto;"">
                                    <img src=""images/D36.png"" style= ""width:200px""alt=""img"">
                                </div>
                            </div>","86","","0","images/D36.png","","","","[""Hard"",""Soft""]"
"","","","","","html-slider-response","31","171214","0.0-27.0","0nv2u1py28","NaN","<div style=""width:500px;"">
                                <p style=""font-size:50px; font-weight:bold;""
                                ></p>
                                <div style=""width:240px; margin: auto;"">
                                    <img src=""images/D104.png"" style= ""width:200px""alt=""img"">
                                </div>
                            </div>","76","","0","images/D104.png","","","","[""Hard"",""Soft""]"
"","","","","","html-slider-response","32","172616","0.0-28.0","0nv2u1py28","NaN","<div style=""width:500px;"">
                                <p style=""font-size:50px; font-weight:bold;""
                                ></p>
                                <div style=""width:240px; margin: auto;"">
                                    <img src=""images/D17.png"" style= ""width:200px""alt=""img"">
                                </div>
                            </div>","90","","0","images/D17.png","","","","[""Hard"",""Soft""]"
"","","","","","html-slider-response","33","173931","0.0-29.0","0nv2u1py28","NaN","<div style=""width:500px;"">
                                <p style=""font-size:50px; font-weight:bold;""
                                ></p>
                                <div style=""width:240px; margin: auto;"">
                                    <img src=""images/D76.png"" style= ""width:200px""alt=""img"">
                                </div>
                            </div>","87","","0","images/D76.png","","","","[""Hard"",""Soft""]"
"","","","","","html-slider-response","34","175832","0.0-30.0","0nv2u1py28","NaN","<div style=""width:500px;"">
                                <p style=""font-size:50px; font-weight:bold;""
                                ></p>
                                <div style=""width:240px; margin: auto;"">
                                    <img src=""images/D24.png"" style= ""width:200px""alt=""img"">
                                </div>
                            </div>","-24","","0","images/D24.png","","","","[""Hard"",""Soft""]"
"","","","","","html-slider-response","35","177139","0.0-31.0","0nv2u1py28","NaN","<div style=""width:500px;"">
                                <p style=""font-size:50px; font-weight:bold;""
                                ></p>
                                <div style=""width:240px; margin: auto;"">
                                    <img src=""images/D35.png"" style= ""width:200px""alt=""img"">
                                </div>
                            </div>","74","","0","images/D35.png","","","","[""Hard"",""Soft""]"
"","","","","","html-slider-response","36","178647","0.0-32.0","0nv2u1py28","NaN","<div style=""width:500px;"">
                                <p style=""font-size:50px; font-weight:bold;""
                                ></p>
                                <div style=""width:240px; margin: auto;"">
                                    <img src=""images/D55.png"" style= ""width:200px""alt=""img"">
                                </div>
                            </div>","39","","0","images/D55.png","","","","[""Hard"",""Soft""]"
"","","","","","html-slider-response","37","181435","0.0-33.0","0nv2u1py28","NaN","<div style=""width:500px;"">
                                <p style=""font-size:50px; font-weight:bold;""
                                ></p>
                                <div style=""width:240px; margin: auto;"">
                                    <img src=""images/D78.png"" style= ""width:200px""alt=""img"">
                                </div>
                            </div>","25","","0","images/D78.png","","","","[""Hard"",""Soft""]"
"","","","","","html-slider-response","38","184564","0.0-34.0","0nv2u1py28","NaN","<div style=""width:500px;"">
                                <p style=""font-size:50px; font-weight:bold;""
                                ></p>
                                <div style=""width:240px; margin: auto;"">
                                    <img src=""images/D103.png"" style= ""width:200px""alt=""img"">
                                </div>
                            </div>","66","","0","images/D103.png","","","","[""Hard"",""Soft""]"
"","","","","","html-slider-response","39","187315","0.0-35.0","0nv2u1py28","NaN","<div style=""width:500px;"">
                                <p style=""font-size:50px; font-weight:bold;""
                                ></p>
                                <div style=""width:240px; margin: auto;"">
                                    <img src=""images/D29.png"" style= ""width:200px""alt=""img"">
                                </div>
                            </div>","90","","0","images/D29.png","","","","[""Hard"",""Soft""]"
"","","","","","html-slider-response","40","189064","0.0-36.0","0nv2u1py28","NaN","<div style=""width:500px;"">
                                <p style=""font-size:50px; font-weight:bold;""
                                ></p>
                                <div style=""width:240px; margin: auto;"">
                                    <img src=""images/D47.png"" style= ""width:200px""alt=""img"">
                                </div>
                            </div>","90","","0","images/D47.png","","","","[""Hard"",""Soft""]"
"","","","","","html-slider-response","41","190248","0.0-37.0","0nv2u1py28","NaN","<div style=""width:500px;"">
                                <p style=""font-size:50px; font-weight:bold;""
                                ></p>
                                <div style=""width:240px; margin: auto;"">
                                    <img src=""images/D8.png"" style= ""width:200px""alt=""img"">
                                </div>
                            </div>","93","","0","images/D8.png","","","","[""Hard"",""Soft""]"
"","","","","","html-slider-response","42","193297","0.0-38.0","0nv2u1py28","NaN","<div style=""width:500px;"">
                                <p style=""font-size:50px; font-weight:bold;""
                                ></p>
                                <div style=""width:240px; margin: auto;"">
                                    <img src=""images/D9.png"" style= ""width:200px""alt=""img"">
                                </div>
                            </div>","49","","0","images/D9.png","","","","[""Hard"",""Soft""]"
"","","","","","html-slider-response","43","195107","0.0-39.0","0nv2u1py28","NaN","<div style=""width:500px;"">
                                <p style=""font-size:50px; font-weight:bold;""
                                ></p>
                                <div style=""width:240px; margin: auto;"">
                                    <img src=""images/D68.png"" style= ""width:200px""alt=""img"">
                                </div>
                            </div>","-107","","0","images/D68.png","","","","[""Hard"",""Soft""]"
"","","","","","html-slider-response","44","196717","0.0-40.0","0nv2u1py28","NaN","<div style=""width:500px;"">
                                <p style=""font-size:50px; font-weight:bold;""
                                ></p>
                                <div style=""width:240px; margin: auto;"">
                                    <img src=""images/D4.png"" style= ""width:200px""alt=""img"">
                                </div>
                            </div>","39","","0","images/D4.png","","","","[""Hard"",""Soft""]"
"","","","","","html-slider-response","45","198314","0.0-41.0","0nv2u1py28","NaN","<div style=""width:500px;"">
                                <p style=""font-size:50px; font-weight:bold;""
                                ></p>
                                <div style=""width:240px; margin: auto;"">
                                    <img src=""images/D75.png"" style= ""width:200px""alt=""img"">
                                </div>
                            </div>","50","","0","images/D75.png","","","","[""Hard"",""Soft""]"
"","","","","","html-slider-response","46","199668","0.0-42.0","0nv2u1py28","NaN","<div style=""width:500px;"">
                                <p style=""font-size:50px; font-weight:bold;""
                                ></p>
                                <div style=""width:240px; margin: auto;"">
                                    <img src=""images/D81.png"" style= ""width:200px""alt=""img"">
                                </div>
                            </div>","102","","0","images/D81.png","","","","[""Hard"",""Soft""]"
"","","","","","html-slider-response","47","201065","0.0-43.0","0nv2u1py28","NaN","<div style=""width:500px;"">
                                <p style=""font-size:50px; font-weight:bold;""
                                ></p>
                                <div style=""width:240px; margin: auto;"">
                                    <img src=""images/D16.png"" style= ""width:200px""alt=""img"">
                                </div>
                            </div>","-46","","0","images/D16.png","","","","[""Hard"",""Soft""]"
"","","","","","html-slider-response","48","202536","0.0-44.0","0nv2u1py28","NaN","<div style=""width:500px;"">
                                <p style=""font-size:50px; font-weight:bold;""
                                ></p>
                                <div style=""width:240px; margin: auto;"">
                                    <img src=""images/D21.png"" style= ""width:200px""alt=""img"">
                                </div>
                            </div>","-79","","0","images/D21.png","","","","[""Hard"",""Soft""]"
"","","","","","html-slider-response","49","205035","0.0-45.0","0nv2u1py28","NaN","<div style=""width:500px;"">
                                <p style=""font-size:50px; font-weight:bold;""
                                ></p>
                                <div style=""width:240px; margin: auto;"">
                                    <img src=""images/D92.png"" style= ""width:200px""alt=""img"">
                                </div>
                            </div>","87","","0","images/D92.png","","","","[""Hard"",""Soft""]"
"","","","","","html-slider-response","50","207118","0.0-46.0","0nv2u1py28","NaN","<div style=""width:500px;"">
                                <p style=""font-size:50px; font-weight:bold;""
                                ></p>
                                <div style=""width:240px; margin: auto;"">
                                    <img src=""images/D64.png"" style= ""width:200px""alt=""img"">
                                </div>
                            </div>","87","","0","images/D64.png","","","","[""Hard"",""Soft""]"
"","","","","","html-slider-response","51","208297","0.0-47.0","0nv2u1py28","NaN","<div style=""width:500px;"">
                                <p style=""font-size:50px; font-weight:bold;""
                                ></p>
                                <div style=""width:240px; margin: auto;"">
                                    <img src=""images/D18.png"" style= ""width:200px""alt=""img"">
                                </div>
                            </div>","87","","0","images/D18.png","","","","[""Hard"",""Soft""]"
"","","","","","html-slider-response","52","210631","0.0-48.0","0nv2u1py28","NaN","<div style=""width:500px;"">
                                <p style=""font-size:50px; font-weight:bold;""
                                ></p>
                                <div style=""width:240px; margin: auto;"">
                                    <img src=""images/D19.png"" style= ""width:200px""alt=""img"">
                                </div>
                            </div>","-62","","0","images/D19.png","","","","[""Hard"",""Soft""]"
"","","","","","html-slider-response","53","212431","0.0-49.0","0nv2u1py28","NaN","<div style=""width:500px;"">
                                <p style=""font-size:50px; font-weight:bold;""
                                ></p>
                                <div style=""width:240px; margin: auto;"">
                                    <img src=""images/D84.png"" style= ""width:200px""alt=""img"">
                                </div>
                            </div>","-50","","0","images/D84.png","","","","[""Hard"",""Soft""]"
"","","","","","html-slider-response","54","214064","0.0-50.0","0nv2u1py28","NaN","<div style=""width:500px;"">
                                <p style=""font-size:50px; font-weight:bold;""
                                ></p>
                                <div style=""width:240px; margin: auto;"">
                                    <img src=""images/D3.png"" style= ""width:200px""alt=""img"">
                                </div>
                            </div>","-50","","0","images/D3.png","","","","[""Hard"",""Soft""]"
"","","","","","html-slider-response","55","215781","0.0-51.0","0nv2u1py28","NaN","<div style=""width:500px;"">
                                <p style=""font-size:50px; font-weight:bold;""
                                ></p>
                                <div style=""width:240px; margin: auto;"">
                                    <img src=""images/D49.png"" style= ""width:200px""alt=""img"">
                                </div>
                            </div>","-67","","0","images/D49.png","","","","[""Hard"",""Soft""]"
"","","","","","html-slider-response","56","218314","0.0-52.0","0nv2u1py28","NaN","<div style=""width:500px;"">
                                <p style=""font-size:50px; font-weight:bold;""
                                ></p>
                                <div style=""width:240px; margin: auto;"">
                                    <img src=""images/D82.png"" style= ""width:200px""alt=""img"">
                                </div>
                            </div>","-119","","0","images/D82.png","","","","[""Hard"",""Soft""]"
"","","","","","html-slider-response","57","220085","0.0-53.0","0nv2u1py28","NaN","<div style=""width:500px;"">
                                <p style=""font-size:50px; font-weight:bold;""
                                ></p>
                                <div style=""width:240px; margin: auto;"">
                                    <img src=""images/D51.png"" style= ""width:200px""alt=""img"">
                                </div>
                            </div>","38","","0","images/D51.png","","","","[""Hard"",""Soft""]"
"","","","","","html-slider-response","58","223115","0.0-54.0","0nv2u1py28","NaN","<div style=""width:500px;"">
                                <p style=""font-size:50px; font-weight:bold;""
                                ></p>
                                <div style=""width:240px; margin: auto;"">
                                    <img src=""images/D25.png"" style= ""width:200px""alt=""img"">
                                </div>
                            </div>","-198","","0","images/D25.png","","","","[""Hard"",""Soft""]"
"","","","","","html-slider-response","59","224365","0.0-55.0","0nv2u1py28","NaN","<div style=""width:500px;"">
                                <p style=""font-size:50px; font-weight:bold;""
                                ></p>
                                <div style=""width:240px; margin: auto;"">
                                    <img src=""images/D96.png"" style= ""width:200px""alt=""img"">
                                </div>
                            </div>","-198","","0","images/D96.png","","","","[""Hard"",""Soft""]"
"","","","","","html-slider-response","60","226818","0.0-56.0","0nv2u1py28","NaN","<div style=""width:500px;"">
                                <p style=""font-size:50px; font-weight:bold;""
                                ></p>
                                <div style=""width:240px; margin: auto;"">
                                    <img src=""images/D48.png"" style= ""width:200px""alt=""img"">
                                </div>
                            </div>","14","","0","images/D48.png","","","","[""Hard"",""Soft""]"
"","","","","","html-slider-response","61","229685","0.0-57.0","0nv2u1py28","NaN","<div style=""width:500px;"">
                                <p style=""font-size:50px; font-weight:bold;""
                                ></p>
                                <div style=""width:240px; margin: auto;"">
                                    <img src=""images/D95.png"" style= ""width:200px""alt=""img"">
                                </div>
                            </div>","-198","","0","images/D95.png","","","","[""Hard"",""Soft""]"
"","","","","","html-slider-response","62","231930","0.0-58.0","0nv2u1py28","NaN","<div style=""width:500px;"">
                                <p style=""font-size:50px; font-weight:bold;""
                                ></p>
                                <div style=""width:240px; margin: auto;"">
                                    <img src=""images/D37.png"" style= ""width:200px""alt=""img"">
                                </div>
                            </div>","78","","0","images/D37.png","","","","[""Hard"",""Soft""]"
"","","","","","html-slider-response","63","233184","0.0-59.0","0nv2u1py28","NaN","<div style=""width:500px;"">
                                <p style=""font-size:50px; font-weight:bold;""
                                ></p>
                                <div style=""width:240px; margin: auto;"">
                                    <img src=""images/D52.png"" style= ""width:200px""alt=""img"">
                                </div>
                            </div>","66","","0","images/D52.png","","","","[""Hard"",""Soft""]"
"","","","","","html-slider-response","64","234667","0.0-60.0","0nv2u1py28","NaN","<div style=""width:500px;"">
                                <p style=""font-size:50px; font-weight:bold;""
                                ></p>
                                <div style=""width:240px; margin: auto;"">
                                    <img src=""images/D105.png"" style= ""width:200px""alt=""img"">
                                </div>
                            </div>","-137","","0","images/D105.png","","","","[""Hard"",""Soft""]"
"","","","","","html-slider-response","65","235780","0.0-61.0","0nv2u1py28","NaN","<div style=""width:500px;"">
                                <p style=""font-size:50px; font-weight:bold;""
                                ></p>
                                <div style=""width:240px; margin: auto;"">
                                    <img src=""images/D26.png"" style= ""width:200px""alt=""img"">
                                </div>
                            </div>","-106","","0","images/D26.png","","","","[""Hard"",""Soft""]"
"","","","","","html-slider-response","66","237446","0.0-62.0","0nv2u1py28","NaN","<div style=""width:500px;"">
                                <p style=""font-size:50px; font-weight:bold;""
                                ></p>
                                <div style=""width:240px; margin: auto;"">
                                    <img src=""images/D87.png"" style= ""width:200px""alt=""img"">
                                </div>
                            </div>","170","","0","images/D87.png","","","","[""Hard"",""Soft""]"
"","","","","","html-slider-response","67","238696","0.0-63.0","0nv2u1py28","NaN","<div style=""width:500px;"">
                                <p style=""font-size:50px; font-weight:bold;""
                                ></p>
                                <div style=""width:240px; margin: auto;"">
                                    <img src=""images/D56.png"" style= ""width:200px""alt=""img"">
                                </div>
                            </div>","92","","0","images/D56.png","","","","[""Hard"",""Soft""]"
"","","","","","html-slider-response","68","239814","0.0-64.0","0nv2u1py28","NaN","<div style=""width:500px;"">
                                <p style=""font-size:50px; font-weight:bold;""
                                ></p>
                                <div style=""width:240px; margin: auto;"">
                                    <img src=""images/D65.png"" style= ""width:200px""alt=""img"">
                                </div>
                            </div>","76","","0","images/D65.png","","","","[""Hard"",""Soft""]"
"","","","","","html-slider-response","69","241380","0.0-65.0","0nv2u1py28","NaN","<div style=""width:500px;"">
                                <p style=""font-size:50px; font-weight:bold;""
                                ></p>
                                <div style=""width:240px; margin: auto;"">
                                    <img src=""images/D106.png"" style= ""width:200px""alt=""img"">
                                </div>
                            </div>","-108","","0","images/D106.png","","","","[""Hard"",""Soft""]"
"","","","","","html-slider-response","70","242581","0.0-66.0","0nv2u1py28","NaN","<div style=""width:500px;"">
                                <p style=""font-size:50px; font-weight:bold;""
                                ></p>
                                <div style=""width:240px; margin: auto;"">
                                    <img src=""images/D34.png"" style= ""width:200px""alt=""img"">
                                </div>
                            </div>","69","","0","images/D34.png","","","","[""Hard"",""Soft""]"
"","","","","","html-slider-response","71","243730","0.0-67.0","0nv2u1py28","NaN","<div style=""width:500px;"">
                                <p style=""font-size:50px; font-weight:bold;""
                                ></p>
                                <div style=""width:240px; margin: auto;"">
                                    <img src=""images/D11.png"" style= ""width:200px""alt=""img"">
                                </div>
                            </div>","-106","","0","images/D11.png","","","","[""Hard"",""Soft""]"
"","","","","","html-slider-response","72","244901","0.0-68.0","0nv2u1py28","NaN","<div style=""width:500px;"">
                                <p style=""font-size:50px; font-weight:bold;""
                                ></p>
                                <div style=""width:240px; margin: auto;"">
                                    <img src=""images/D57.png"" style= ""width:200px""alt=""img"">
                                </div>
                            </div>","-113","","0","images/D57.png","","","","[""Hard"",""Soft""]"
"","","","","","html-slider-response","73","245966","0.0-69.0","0nv2u1py28","NaN","<div style=""width:500px;"">
                                <p style=""font-size:50px; font-weight:bold;""
                                ></p>
                                <div style=""width:240px; margin: auto;"">
                                    <img src=""images/D85.png"" style= ""width:200px""alt=""img"">
                                </div>
                            </div>","-105","","0","images/D85.png","","","","[""Hard"",""Soft""]"
"","","","","","html-slider-response","74","247180","0.0-70.0","0nv2u1py28","NaN","<div style=""width:500px;"">
                                <p style=""font-size:50px; font-weight:bold;""
                                ></p>
                                <div style=""width:240px; margin: auto;"">
                                    <img src=""images/D66.png"" style= ""width:200px""alt=""img"">
                                </div>
                            </div>","-105","","0","images/D66.png","","","","[""Hard"",""Soft""]"
"","","","","","html-slider-response","75","249465","0.0-71.0","0nv2u1py28","NaN","<div style=""width:500px;"">
                                <p style=""font-size:50px; font-weight:bold;""
                                ></p>
                                <div style=""width:240px; margin: auto;"">
                                    <img src=""images/D53.png"" style= ""width:200px""alt=""img"">
                                </div>
                            </div>","80","","0","images/D53.png","","","","[""Hard"",""Soft""]"
"","","","","","html-slider-response","76","251330","0.0-72.0","0nv2u1py28","NaN","<div style=""width:500px;"">
                                <p style=""font-size:50px; font-weight:bold;""
                                ></p>
                                <div style=""width:240px; margin: auto;"">
                                    <img src=""images/D101.png"" style= ""width:200px""alt=""img"">
                                </div>
                            </div>","-70","","0","images/D101.png","","","","[""Hard"",""Soft""]"
"","","","","","html-slider-response","77","252266","0.0-73.0","0nv2u1py28","NaN","<div style=""width:500px;"">
                                <p style=""font-size:50px; font-weight:bold;""
                                ></p>
                                <div style=""width:240px; margin: auto;"">
                                    <img src=""images/D80.png"" style= ""width:200px""alt=""img"">
                                </div>
                            </div>","62","","0","images/D80.png","","","","[""Hard"",""Soft""]"
"","","","","","html-slider-response","78","253248","0.0-74.0","0nv2u1py28","NaN","<div style=""width:500px;"">
                                <p style=""font-size:50px; font-weight:bold;""
                                ></p>
                                <div style=""width:240px; margin: auto;"">
                                    <img src=""images/D79.png"" style= ""width:200px""alt=""img"">
                                </div>
                            </div>","-129","","0","images/D79.png","","","","[""Hard"",""Soft""]"
"","","","","","html-slider-response","79","254196","0.0-75.0","0nv2u1py28","NaN","<div style=""width:500px;"">
                                <p style=""font-size:50px; font-weight:bold;""
                                ></p>
                                <div style=""width:240px; margin: auto;"">
                                    <img src=""images/D77.png"" style= ""width:200px""alt=""img"">
                                </div>
                            </div>","71","","0","images/D77.png","","","","[""Hard"",""Soft""]"
"","","","","","html-button-response","80","256906","0.0-76.0","0nv2u1py28","2208","You have completed the first block of trials out of six. Please click 'Continue' when you are ready proceed.","0","","","","","","",""
"","","","","","html-button-response","81","259569","0.0-77.0","0nv2u1py28","2661","In the following trials, you will be asked to rate textures on the scale <b>Non-Random</b> versus <b>Random</b>. Please click 'Continue' when you are ready proceed.","0","","","","","","",""
"","","","","","html-slider-response","82","261796","0.0-78.0","0nv2u1py28","NaN","<div style=""width:500px;"">
                                <p style=""font-size:50px; font-weight:bold;""
                                ></p>
                                <div style=""width:240px; margin: auto;"">
                                    <img src=""images/D103.png"" style= ""width:200px""alt=""img"">
                                </div>
                            </div>","110","","0","images/D103.png","","","","[""Non-random"",""Random""]"
"","","","","","html-slider-response","83","263932","0.0-79.0","0nv2u1py28","NaN","<div style=""width:500px;"">
                                <p style=""font-size:50px; font-weight:bold;""
                                ></p>
                                <div style=""width:240px; margin: auto;"">
                                    <img src=""images/D66.png"" style= ""width:200px""alt=""img"">
                                </div>
                            </div>","94","","0","images/D66.png","","","","[""Non-random"",""Random""]"
"","","","","","html-slider-response","84","265332","0.0-80.0","0nv2u1py28","NaN","<div style=""width:500px;"">
                                <p style=""font-size:50px; font-weight:bold;""
                                ></p>
                                <div style=""width:240px; margin: auto;"">
                                    <img src=""images/D87.png"" style= ""width:200px""alt=""img"">
                                </div>
                            </div>","70","","0","images/D87.png","","","","[""Non-random"",""Random""]"
"","","","","","html-slider-response","85","267001","0.0-81.0","0nv2u1py28","NaN","<div style=""width:500px;"">
                                <p style=""font-size:50px; font-weight:bold;""
                                ></p>
                                <div style=""width:240px; margin: auto;"">
                                    <img src=""images/D76.png"" style= ""width:200px""alt=""img"">
                                </div>
                            </div>","99","","0","images/D76.png","","","","[""Non-random"",""Random""]"
"","","","","","html-slider-response","86","268682","0.0-82.0","0nv2u1py28","NaN","<div style=""width:500px;"">
                                <p style=""font-size:50px; font-weight:bold;""
                                ></p>
                                <div style=""width:240px; margin: auto;"">
                                    <img src=""images/D18.png"" style= ""width:200px""alt=""img"">
                                </div>
                            </div>","-42","","0","images/D18.png","","","","[""Non-random"",""Random""]"
"","","","","","html-slider-response","87","270418","0.0-83.0","0nv2u1py28","NaN","<div style=""width:500px;"">
                                <p style=""font-size:50px; font-weight:bold;""
                                ></p>
                                <div style=""width:240px; margin: auto;"">
                                    <img src=""images/D36.png"" style= ""width:200px""alt=""img"">
                                </div>
                            </div>","-42","","0","images/D36.png","","","","[""Non-random"",""Random""]"
"","","","","","html-slider-response","88","272564","0.0-84.0","0nv2u1py28","NaN","<div style=""width:500px;"">
                                <p style=""font-size:50px; font-weight:bold;""
                                ></p>
                                <div style=""width:240px; margin: auto;"">
                                    <img src=""images/D95.png"" style= ""width:200px""alt=""img"">
                                </div>
                            </div>","-117","","0","images/D95.png","","","","[""Non-random"",""Random""]"
"","","","","","html-slider-response","89","274497","0.0-85.0","0nv2u1py28","NaN","<div style=""width:500px;"">
                                <p style=""font-size:50px; font-weight:bold;""
                                ></p>
                                <div style=""width:240px; margin: auto;"">
                                    <img src=""images/D94.png"" style= ""width:200px""alt=""img"">
                                </div>
                            </div>","-171","","0","images/D94.png","","","","[""Non-random"",""Random""]"
"","","","","","html-slider-response","90","278332","0.0-86.0","0nv2u1py28","NaN","<div style=""width:500px;"">
                                <p style=""font-size:50px; font-weight:bold;""
                                ></p>
                                <div style=""width:240px; margin: auto;"">
                                    <img src=""images/D3.png"" style= ""width:200px""alt=""img"">
                                </div>
                            </div>","-171","","0","images/D3.png","","","","[""Non-random"",""Random""]"
"","","","","","html-slider-response","91","279882","0.0-87.0","0nv2u1py28","NaN","<div style=""width:500px;"">
                                <p style=""font-size:50px; font-weight:bold;""
                                ></p>
                                <div style=""width:240px; margin: auto;"">
                                    <img src=""images/D79.png"" style= ""width:200px""alt=""img"">
                                </div>
                            </div>","-82","","0","images/D79.png","","","","[""Non-random"",""Random""]"
"","","","","","html-slider-response","92","280849","0.0-88.0","0nv2u1py28","NaN","<div style=""width:500px;"">
                                <p style=""font-size:50px; font-weight:bold;""
                                ></p>
                                <div style=""width:240px; margin: auto;"">
                                    <img src=""images/D74.png"" style= ""width:200px""alt=""img"">
                                </div>
                            </div>","82","","0","images/D74.png","","","","[""Non-random"",""Random""]"
"","","","","","html-slider-response","93","282132","0.0-89.0","0nv2u1py28","NaN","<div style=""width:500px;"">
                                <p style=""font-size:50px; font-weight:bold;""
                                ></p>
                                <div style=""width:240px; margin: auto;"">
                                    <img src=""images/D92.png"" style= ""width:200px""alt=""img"">
                                </div>
                            </div>","-62","","0","images/D92.png","","","","[""Non-random"",""Random""]"
"","","","","","html-slider-response","94","283163","0.0-90.0","0nv2u1py28","NaN","<div style=""width:500px;"">
                                <p style=""font-size:50px; font-weight:bold;""
                                ></p>
                                <div style=""width:240px; margin: auto;"">
                                    <img src=""images/D85.png"" style= ""width:200px""alt=""img"">
                                </div>
                            </div>","86","","0","images/D85.png","","","","[""Non-random"",""Random""]"
"","","","","","html-slider-response","95","284647","0.0-91.0","0nv2u1py28","NaN","<div style=""width:500px;"">
                                <p style=""font-size:50px; font-weight:bold;""
                                ></p>
                                <div style=""width:240px; margin: auto;"">
                                    <img src=""images/D16.png"" style= ""width:200px""alt=""img"">
                                </div>
                            </div>","78","","0","images/D16.png","","","","[""Non-random"",""Random""]"
"","","","","","html-slider-response","96","285596","0.0-92.0","0nv2u1py28","NaN","<div style=""width:500px;"">
                                <p style=""font-size:50px; font-weight:bold;""
                                ></p>
                                <div style=""width:240px; margin: auto;"">
                                    <img src=""images/D14.png"" style= ""width:200px""alt=""img"">
                                </div>
                            </div>","86","","0","images/D14.png","","","","[""Non-random"",""Random""]"
"","","","","","html-slider-response","97","286496","0.0-93.0","0nv2u1py28","NaN","<div style=""width:500px;"">
                                <p style=""font-size:50px; font-weight:bold;""
                                ></p>
                                <div style=""width:240px; margin: auto;"">
                                    <img src=""images/D48.png"" style= ""width:200px""alt=""img"">
                                </div>
                            </div>","86","","0","images/D48.png","","","","[""Non-random"",""Random""]"
"","","","","","html-slider-response","98","287629","0.0-94.0","0nv2u1py28","NaN","<div style=""width:500px;"">
                                <p style=""font-size:50px; font-weight:bold;""
                                ></p>
                                <div style=""width:240px; margin: auto;"">
                                    <img src=""images/D83.png"" style= ""width:200px""alt=""img"">
                                </div>
                            </div>","-102","","0","images/D83.png","","","","[""Non-random"",""Random""]"
"","","","","","html-slider-response","99","288612","0.0-95.0","0nv2u1py28","NaN","<div style=""width:500px;"">
                                <p style=""font-size:50px; font-weight:bold;""
                                ></p>
                                <div style=""width:240px; margin: auto;"">
                                    <img src=""images/D102.png"" style= ""width:200px""alt=""img"">
                                </div>
                            </div>","-103","","0","images/D102.png","","","","[""Non-random"",""Random""]"
"","","","","","html-slider-response","100","290033","0.0-96.0","0nv2u1py28","NaN","<div style=""width:500px;"">
                                <p style=""font-size:50px; font-weight:bold;""
                                ></p>
                                <div style=""width:240px; margin: auto;"">
                                    <img src=""images/D57.png"" style= ""width:200px""alt=""img"">
                                </div>
                            </div>","89","","0","images/D57.png","","","","[""Non-random"",""Random""]"
"","","","","","html-slider-response","101","291112","0.0-97.0","0nv2u1py28","NaN","<div style=""width:500px;"">
                                <p style=""font-size:50px; font-weight:bold;""
                                ></p>
                                <div style=""width:240px; margin: auto;"">
                                    <img src=""images/D20.png"" style= ""width:200px""alt=""img"">
                                </div>
                            </div>","-111","","0","images/D20.png","","","","[""Non-random"",""Random""]"
"","","","","","html-slider-response","102","292034","0.0-98.0","0nv2u1py28","NaN","<div style=""width:500px;"">
                                <p style=""font-size:50px; font-weight:bold;""
                                ></p>
                                <div style=""width:240px; margin: auto;"">
                                    <img src=""images/D26.png"" style= ""width:200px""alt=""img"">
                                </div>
                            </div>","97","","0","images/D26.png","","","","[""Non-random"",""Random""]"
"","","","","","html-slider-response","103","293179","0.0-99.0","0nv2u1py28","NaN","<div style=""width:500px;"">
                                <p style=""font-size:50px; font-weight:bold;""
                                ></p>
                                <div style=""width:240px; margin: auto;"">
                                    <img src=""images/D106.png"" style= ""width:200px""alt=""img"">
                                </div>
                            </div>","-88","","0","images/D106.png","","","","[""Non-random"",""Random""]"
"","","","","","html-slider-response","104","294097","0.0-100.0","0nv2u1py28","NaN","<div style=""width:500px;"">
                                <p style=""font-size:50px; font-weight:bold;""
                                ></p>
                                <div style=""width:240px; margin: auto;"">
                                    <img src=""images/D56.png"" style= ""width:200px""alt=""img"">
                                </div>
                            </div>","-114","","0","images/D56.png","","","","[""Non-random"",""Random""]"
"","","","","","html-slider-response","105","295047","0.0-101.0","0nv2u1py28","NaN","<div style=""width:500px;"">
                                <p style=""font-size:50px; font-weight:bold;""
                                ></p>
                                <div style=""width:240px; margin: auto;"">
                                    <img src=""images/D82.png"" style= ""width:200px""alt=""img"">
                                </div>
                            </div>","-114","","0","images/D82.png","","","","[""Non-random"",""Random""]"
"","","","","","html-slider-response","106","295813","0.0-102.0","0nv2u1py28","NaN","<div style=""width:500px;"">
                                <p style=""font-size:50px; font-weight:bold;""
                                ></p>
                                <div style=""width:240px; margin: auto;"">
                                    <img src=""images/D104.png"" style= ""width:200px""alt=""img"">
                                </div>
                            </div>","-114","","0","images/D104.png","","","","[""Non-random"",""Random""]"
"","","","","","html-slider-response","107","296530","0.0-103.0","0nv2u1py28","NaN","<div style=""width:500px;"">
                                <p style=""font-size:50px; font-weight:bold;""
                                ></p>
                                <div style=""width:240px; margin: auto;"">
                                    <img src=""images/D17.png"" style= ""width:200px""alt=""img"">
                                </div>
                            </div>","-114","","0","images/D17.png","","","","[""Non-random"",""Random""]"
"","","","","","html-slider-response","108","297662","0.0-104.0","0nv2u1py28","NaN","<div style=""width:500px;"">
                                <p style=""font-size:50px; font-weight:bold;""
                                ></p>
                                <div style=""width:240px; margin: auto;"">
                                    <img src=""images/D68.png"" style= ""width:200px""alt=""img"">
                                </div>
                            </div>","89","","0","images/D68.png","","","","[""Non-random"",""Random""]"
"","","","","","html-slider-response","109","298579","0.0-105.0","0nv2u1py28","NaN","<div style=""width:500px;"">
                                <p style=""font-size:50px; font-weight:bold;""
                                ></p>
                                <div style=""width:240px; margin: auto;"">
                                    <img src=""images/D11.png"" style= ""width:200px""alt=""img"">
                                </div>
                            </div>","-86","","0","images/D11.png","","","","[""Non-random"",""Random""]"
"","","","","","html-slider-response","110","299412","0.0-106.0","0nv2u1py28","NaN","<div style=""width:500px;"">
                                <p style=""font-size:50px; font-weight:bold;""
                                ></p>
                                <div style=""width:240px; margin: auto;"">
                                    <img src=""images/D101.png"" style= ""width:200px""alt=""img"">
                                </div>
                            </div>","87","","0","images/D101.png","","","","[""Non-random"",""Random""]"
"","","","","","html-slider-response","111","300179","0.0-107.0","0nv2u1py28","NaN","<div style=""width:500px;"">
                                <p style=""font-size:50px; font-weight:bold;""
                                ></p>
                                <div style=""width:240px; margin: auto;"">
                                    <img src=""images/D34.png"" style= ""width:200px""alt=""img"">
                                </div>
                            </div>","87","","0","images/D34.png","","","","[""Non-random"",""Random""]"
"","","","","","html-slider-response","112","301079","0.0-108.0","0nv2u1py28","NaN","<div style=""width:500px;"">
                                <p style=""font-size:50px; font-weight:bold;""
                                ></p>
                                <div style=""width:240px; margin: auto;"">
                                    <img src=""images/D55.png"" style= ""width:200px""alt=""img"">
                                </div>
                            </div>","86","","0","images/D55.png","","","","[""Non-random"",""Random""]"
"","","","","","html-slider-response","113","302113","0.0-109.0","0nv2u1py28","NaN","<div style=""width:500px;"">
                                <p style=""font-size:50px; font-weight:bold;""
                                ></p>
                                <div style=""width:240px; margin: auto;"">
                                    <img src=""images/D75.png"" style= ""width:200px""alt=""img"">
                                </div>
                            </div>","-86","","0","images/D75.png","","","","[""Non-random"",""Random""]"
"","","","","","html-slider-response","114","302979","0.0-110.0","0nv2u1py28","NaN","<div style=""width:500px;"">
                                <p style=""font-size:50px; font-weight:bold;""
                                ></p>
                                <div style=""width:240px; margin: auto;"">
                                    <img src=""images/D65.png"" style= ""width:200px""alt=""img"">
                                </div>
                            </div>","111","","0","images/D65.png","","","","[""Non-random"",""Random""]"
"","","","","","html-slider-response","115","303928","0.0-111.0","0nv2u1py28","NaN","<div style=""width:500px;"">
                                <p style=""font-size:50px; font-weight:bold;""
                                ></p>
                                <div style=""width:240px; margin: auto;"">
                                    <img src=""images/D96.png"" style= ""width:200px""alt=""img"">
                                </div>
                            </div>","-83","","0","images/D96.png","","","","[""Non-random"",""Random""]"
"","","","","","html-slider-response","116","305095","0.0-112.0","0nv2u1py28","NaN","<div style=""width:500px;"">
                                <p style=""font-size:50px; font-weight:bold;""
                                ></p>
                                <div style=""width:240px; margin: auto;"">
                                    <img src=""images/D84.png"" style= ""width:200px""alt=""img"">
                                </div>
                            </div>","194","","0","images/D84.png","","","","[""Non-random"",""Random""]"
"","","","","","html-slider-response","117","306746","0.0-113.0","0nv2u1py28","NaN","<div style=""width:500px;"">
                                <p style=""font-size:50px; font-weight:bold;""
                                ></p>
                                <div style=""width:240px; margin: auto;"">
                                    <img src=""images/D105.png"" style= ""width:200px""alt=""img"">
                                </div>
                            </div>","-125","","0","images/D105.png","","","","[""Non-random"",""Random""]"
"","","","","","html-slider-response","118","307567","0.0-114.0","0nv2u1py28","NaN","<div style=""width:500px;"">
                                <p style=""font-size:50px; font-weight:bold;""
                                ></p>
                                <div style=""width:240px; margin: auto;"">
                                    <img src=""images/D1.png"" style= ""width:200px""alt=""img"">
                                </div>
                            </div>","-122","","0","images/D1.png","","","","[""Non-random"",""Random""]"
"","","","","","html-slider-response","119","308632","0.0-115.0","0nv2u1py28","NaN","<div style=""width:500px;"">
                                <p style=""font-size:50px; font-weight:bold;""
                                ></p>
                                <div style=""width:240px; margin: auto;"">
                                    <img src=""images/D32.png"" style= ""width:200px""alt=""img"">
                                </div>
                            </div>","-122","","0","images/D32.png","","","","[""Non-random"",""Random""]"
"","","","","","html-slider-response","120","309694","0.0-116.0","0nv2u1py28","NaN","<div style=""width:500px;"">
                                <p style=""font-size:50px; font-weight:bold;""
                                ></p>
                                <div style=""width:240px; margin: auto;"">
                                    <img src=""images/D64.png"" style= ""width:200px""alt=""img"">
                                </div>
                            </div>","-99","","0","images/D64.png","","","","[""Non-random"",""Random""]"
"","","","","","html-slider-response","121","310783","0.0-117.0","0nv2u1py28","NaN","<div style=""width:500px;"">
                                <p style=""font-size:50px; font-weight:bold;""
                                ></p>
                                <div style=""width:240px; margin: auto;"">
                                    <img src=""images/D49.png"" style= ""width:200px""alt=""img"">
                                </div>
                            </div>","-68","","0","images/D49.png","","","","[""Non-random"",""Random""]"
"","","","","","html-slider-response","122","311713","0.0-118.0","0nv2u1py28","NaN","<div style=""width:500px;"">
                                <p style=""font-size:50px; font-weight:bold;""
                                ></p>
                                <div style=""width:240px; margin: auto;"">
                                    <img src=""images/D47.png"" style= ""width:200px""alt=""img"">
                                </div>
                            </div>","41","","0","images/D47.png","","","","[""Non-random"",""Random""]"
"","","","","","html-slider-response","123","312382","0.0-119.0","0nv2u1py28","NaN","<div style=""width:500px;"">
                                <p style=""font-size:50px; font-weight:bold;""
                                ></p>
                                <div style=""width:240px; margin: auto;"">
                                    <img src=""images/D24.png"" style= ""width:200px""alt=""img"">
                                </div>
                            </div>","-71","","0","images/D24.png","","","","[""Non-random"",""Random""]"
"","","","","","html-slider-response","124","313182","0.0-120.0","0nv2u1py28","NaN","<div style=""width:500px;"">
                                <p style=""font-size:50px; font-weight:bold;""
                                ></p>
                                <div style=""width:240px; margin: auto;"">
                                    <img src=""images/D78.png"" style= ""width:200px""alt=""img"">
                                </div>
                            </div>","54","","0","images/D78.png","","","","[""Non-random"",""Random""]"
"","","","","","html-slider-response","125","314049","0.0-121.0","0nv2u1py28","NaN","<div style=""width:500px;"">
                                <p style=""font-size:50px; font-weight:bold;""
                                ></p>
                                <div style=""width:240px; margin: auto;"">
                                    <img src=""images/D19.png"" style= ""width:200px""alt=""img"">
                                </div>
                            </div>","48","","0","images/D19.png","","","","[""Non-random"",""Random""]"
"","","","","","html-slider-response","126","315028","0.0-122.0","0nv2u1py28","NaN","<div style=""width:500px;"">
                                <p style=""font-size:50px; font-weight:bold;""
                                ></p>
                                <div style=""width:240px; margin: auto;"">
                                    <img src=""images/D6.png"" style= ""width:200px""alt=""img"">
                                </div>
                            </div>","49","","0","images/D6.png","","","","[""Non-random"",""Random""]"
"","","","","","html-slider-response","127","316033","0.0-123.0","0nv2u1py28","NaN","<div style=""width:500px;"">
                                <p style=""font-size:50px; font-weight:bold;""
                                ></p>
                                <div style=""width:240px; margin: auto;"">
                                    <img src=""images/D111.png"" style= ""width:200px""alt=""img"">
                                </div>
                            </div>","49","","0","images/D111.png","","","","[""Non-random"",""Random""]"
"","","","","","html-slider-response","128","317062","0.0-124.0","0nv2u1py28","NaN","<div style=""width:500px;"">
                                <p style=""font-size:50px; font-weight:bold;""
                                ></p>
                                <div style=""width:240px; margin: auto;"">
                                    <img src=""images/D37.png"" style= ""width:200px""alt=""img"">
                                </div>
                            </div>","49","","0","images/D37.png","","","","[""Non-random"",""Random""]"
"","","","","","html-slider-response","129","318329","0.0-125.0","0nv2u1py28","NaN","<div style=""width:500px;"">
                                <p style=""font-size:50px; font-weight:bold;""
                                ></p>
                                <div style=""width:240px; margin: auto;"">
                                    <img src=""images/D51.png"" style= ""width:200px""alt=""img"">
                                </div>
                            </div>","58","","0","images/D51.png","","","","[""Non-random"",""Random""]"
"","","","","","html-slider-response","130","319482","0.0-126.0","0nv2u1py28","NaN","<div style=""width:500px;"">
                                <p style=""font-size:50px; font-weight:bold;""
                                ></p>
                                <div style=""width:240px; margin: auto;"">
                                    <img src=""images/D35.png"" style= ""width:200px""alt=""img"">
                                </div>
                            </div>","58","","0","images/D35.png","","","","[""Non-random"",""Random""]"
"","","","","","html-slider-response","131","322666","0.0-127.0","0nv2u1py28","NaN","<div style=""width:500px;"">
                                <p style=""font-size:50px; font-weight:bold;""
                                ></p>
                                <div style=""width:240px; margin: auto;"">
                                    <img src=""images/D80.png"" style= ""width:200px""alt=""img"">
                                </div>
                            </div>","-106","","0","images/D80.png","","","","[""Non-random"",""Random""]"
"","","","","","html-slider-response","132","323551","0.0-128.0","0nv2u1py28","NaN","<div style=""width:500px;"">
                                <p style=""font-size:50px; font-weight:bold;""
                                ></p>
                                <div style=""width:240px; margin: auto;"">
                                    <img src=""images/D46.png"" style= ""width:200px""alt=""img"">
                                </div>
                            </div>","-106","","0","images/D46.png","","","","[""Non-random"",""Random""]"
"","","","","","html-slider-response","133","324283","0.0-129.0","0nv2u1py28","NaN","<div style=""width:500px;"">
                                <p style=""font-size:50px; font-weight:bold;""
                                ></p>
                                <div style=""width:240px; margin: auto;"">
                                    <img src=""images/D25.png"" style= ""width:200px""alt=""img"">
                                </div>
                            </div>","19","","0","images/D25.png","","","","[""Non-random"",""Random""]"
"","","","","","html-slider-response","134","325045","0.0-130.0","0nv2u1py28","NaN","<div style=""width:500px;"">
                                <p style=""font-size:50px; font-weight:bold;""
                                ></p>
                                <div style=""width:240px; margin: auto;"">
                                    <img src=""images/D4.png"" style= ""width:200px""alt=""img"">
                                </div>
                            </div>","-104","","0","images/D4.png","","","","[""Non-random"",""Random""]"
"","","","","","html-slider-response","135","325746","0.0-131.0","0nv2u1py28","NaN","<div style=""width:500px;"">
                                <p style=""font-size:50px; font-weight:bold;""
                                ></p>
                                <div style=""width:240px; margin: auto;"">
                                    <img src=""images/D81.png"" style= ""width:200px""alt=""img"">
                                </div>
                            </div>","-133","","0","images/D81.png","","","","[""Non-random"",""Random""]"
"","","","","","html-slider-response","136","326848","0.0-132.0","0nv2u1py28","NaN","<div style=""width:500px;"">
                                <p style=""font-size:50px; font-weight:bold;""
                                ></p>
                                <div style=""width:240px; margin: auto;"">
                                    <img src=""images/D22.png"" style= ""width:200px""alt=""img"">
                                </div>
                            </div>","-133","","0","images/D22.png","","","","[""Non-random"",""Random""]"
"","","","","","html-slider-response","137","327795","0.0-133.0","0nv2u1py28","NaN","<div style=""width:500px;"">
                                <p style=""font-size:50px; font-weight:bold;""
                                ></p>
                                <div style=""width:240px; margin: auto;"">
                                    <img src=""images/D29.png"" style= ""width:200px""alt=""img"">
                                </div>
                            </div>","-133","","0","images/D29.png","","","","[""Non-random"",""Random""]"
"","","","","","html-slider-response","138","328745","0.0-134.0","0nv2u1py28","NaN","<div style=""width:500px;"">
                                <p style=""font-size:50px; font-weight:bold;""
                                ></p>
                                <div style=""width:240px; margin: auto;"">
                                    <img src=""images/D53.png"" style= ""width:200px""alt=""img"">
                                </div>
                            </div>","-133","","0","images/D53.png","","","","[""Non-random"",""Random""]"
"","","","","","html-slider-response","139","330278","0.0-135.0","0nv2u1py28","NaN","<div style=""width:500px;"">
                                <p style=""font-size:50px; font-weight:bold;""
                                ></p>
                                <div style=""width:240px; margin: auto;"">
                                    <img src=""images/D21.png"" style= ""width:200px""alt=""img"">
                                </div>
                            </div>","151","","0","images/D21.png","","","","[""Non-random"",""Random""]"
"","","","","","html-slider-response","140","331194","0.0-136.0","0nv2u1py28","NaN","<div style=""width:500px;"">
                                <p style=""font-size:50px; font-weight:bold;""
                                ></p>
                                <div style=""width:240px; margin: auto;"">
                                    <img src=""images/D9.png"" style= ""width:200px""alt=""img"">
                                </div>
                            </div>","82","","0","images/D9.png","","","","[""Non-random"",""Random""]"
"","","","","","html-slider-response","141","332845","0.0-137.0","0nv2u1py28","NaN","<div style=""width:500px;"">
                                <p style=""font-size:50px; font-weight:bold;""
                                ></p>
                                <div style=""width:240px; margin: auto;"">
                                    <img src=""images/D8.png"" style= ""width:200px""alt=""img"">
                                </div>
                            </div>","82","","0","images/D8.png","","","","[""Non-random"",""Random""]"
"","","","","","html-slider-response","142","333762","0.0-138.0","0nv2u1py28","NaN","<div style=""width:500px;"">
                                <p style=""font-size:50px; font-weight:bold;""
                                ></p>
                                <div style=""width:240px; margin: auto;"">
                                    <img src=""images/D52.png"" style= ""width:200px""alt=""img"">
                                </div>
                            </div>","82","","0","images/D52.png","","","","[""Non-random"",""Random""]"
"","","","","","html-slider-response","143","343161","0.0-139.0","0nv2u1py28","NaN","<div style=""width:500px;"">
                                <p style=""font-size:50px; font-weight:bold;""
                                ></p>
                                <div style=""width:240px; margin: auto;"">
                                    <img src=""images/D77.png"" style= ""width:200px""alt=""img"">
                                </div>
                            </div>","124","","0","images/D77.png","","","","[""Non-random"",""Random""]"
"","","","","","html-button-response","144","345073","0.0-140.0","0nv2u1py28","1409","You have completed the second block of trials out of six. Please click 'Continue' when you are ready proceed.","0","","","","","","",""
"","","","","","html-button-response","145","346150","0.0-141.0","0nv2u1py28","1076","In the following trials, you will be asked to rate textures on the scale <b>Smooth</b> versus <b>Rough</b>. Please click 'Continue' when you are ready proceed.","0","","","","","","",""
"","","","","","html-slider-response","146","348088","0.0-142.0","0nv2u1py28","NaN","<div style=""width:500px;"">
                                <p style=""font-size:50px; font-weight:bold;""
                                ></p>
                                <div style=""width:240px; margin: auto;"">
                                    <img src=""images/D94.png"" style= ""width:200px""alt=""img"">
                                </div>
                            </div>","190","","0","images/D94.png","","","","[""Smooth"",""Rough""]"
"","","","","","html-slider-response","147","350796","0.0-143.0","0nv2u1py28","NaN","<div style=""width:500px;"">
                                <p style=""font-size:50px; font-weight:bold;""
                                ></p>
                                <div style=""width:240px; margin: auto;"">
                                    <img src=""images/D46.png"" style= ""width:200px""alt=""img"">
                                </div>
                            </div>","-66","","0","images/D46.png","","","","[""Smooth"",""Rough""]"
"","","","","","html-slider-response","148","351778","0.0-144.0","0nv2u1py28","NaN","<div style=""width:500px;"">
                                <p style=""font-size:50px; font-weight:bold;""
                                ></p>
                                <div style=""width:240px; margin: auto;"">
                                    <img src=""images/D14.png"" style= ""width:200px""alt=""img"">
                                </div>
                            </div>","80","","0","images/D14.png","","","","[""Smooth"",""Rough""]"
"","","","","","html-slider-response","149","352764","0.0-145.0","0nv2u1py28","NaN","<div style=""width:500px;"">
                                <p style=""font-size:50px; font-weight:bold;""
                                ></p>
                                <div style=""width:240px; margin: auto;"">
                                    <img src=""images/D83.png"" style= ""width:200px""alt=""img"">
                                </div>
                            </div>","-137","","0","images/D83.png","","","","[""Smooth"",""Rough""]"
"","","","","","html-slider-response","150","353679","0.0-146.0","0nv2u1py28","NaN","<div style=""width:500px;"">
                                <p style=""font-size:50px; font-weight:bold;""
                                ></p>
                                <div style=""width:240px; margin: auto;"">
                                    <img src=""images/D111.png"" style= ""width:200px""alt=""img"">
                                </div>
                            </div>","-137","","0","images/D111.png","","","","[""Smooth"",""Rough""]"
"","","","","","html-slider-response","151","354647","0.0-147.0","0nv2u1py28","NaN","<div style=""width:500px;"">
                                <p style=""font-size:50px; font-weight:bold;""
                                ></p>
                                <div style=""width:240px; margin: auto;"">
                                    <img src=""images/D1.png"" style= ""width:200px""alt=""img"">
                                </div>
                            </div>","-138","","0","images/D1.png","","","","[""Smooth"",""Rough""]"
"","","","","","html-slider-response","152","355697","0.0-148.0","0nv2u1py28","NaN","<div style=""width:500px;"">
                                <p style=""font-size:50px; font-weight:bold;""
                                ></p>
                                <div style=""width:240px; margin: auto;"">
                                    <img src=""images/D74.png"" style= ""width:200px""alt=""img"">
                                </div>
                            </div>","111","","0","images/D74.png","","","","[""Smooth"",""Rough""]"
"","","","","","html-slider-response","153","356644","0.0-149.0","0nv2u1py28","NaN","<div style=""width:500px;"">
                                <p style=""font-size:50px; font-weight:bold;""
                                ></p>
                                <div style=""width:240px; margin: auto;"">
                                    <img src=""images/D102.png"" style= ""width:200px""alt=""img"">
                                </div>
                            </div>","111","","0","images/D102.png","","","","[""Smooth"",""Rough""]"
"","","","","","html-slider-response","154","357412","0.0-150.0","0nv2u1py28","NaN","<div style=""width:500px;"">
                                <p style=""font-size:50px; font-weight:bold;""
                                ></p>
                                <div style=""width:240px; margin: auto;"">
                                    <img src=""images/D6.png"" style= ""width:200px""alt=""img"">
                                </div>
                            </div>","111","","0","images/D6.png","","","","[""Smooth"",""Rough""]"
"","","","","","html-slider-response","155","358564","0.0-151.0","0nv2u1py28","NaN","<div style=""width:500px;"">
                                <p style=""font-size:50px; font-weight:bold;""
                                ></p>
                                <div style=""width:240px; margin: auto;"">
                                    <img src=""images/D22.png"" style= ""width:200px""alt=""img"">
                                </div>
                            </div>","-92","","0","images/D22.png","","","","[""Smooth"",""Rough""]"
"","","","","","html-slider-response","156","359366","0.0-152.0","0nv2u1py28","NaN","<div style=""width:500px;"">
                                <p style=""font-size:50px; font-weight:bold;""
                                ></p>
                                <div style=""width:240px; margin: auto;"">
                                    <img src=""images/D20.png"" style= ""width:200px""alt=""img"">
                                </div>
                            </div>","74","","0","images/D20.png","","","","[""Smooth"",""Rough""]"
"","","","","","html-slider-response","157","360512","0.0-153.0","0nv2u1py28","NaN","<div style=""width:500px;"">
                                <p style=""font-size:50px; font-weight:bold;""
                                ></p>
                                <div style=""width:240px; margin: auto;"">
                                    <img src=""images/D32.png"" style= ""width:200px""alt=""img"">
                                </div>
                            </div>","74","","0","images/D32.png","","","","[""Smooth"",""Rough""]"
"","","","","","html-slider-response","158","361345","0.0-154.0","0nv2u1py28","NaN","<div style=""width:500px;"">
                                <p style=""font-size:50px; font-weight:bold;""
                                ></p>
                                <div style=""width:240px; margin: auto;"">
                                    <img src=""images/D36.png"" style= ""width:200px""alt=""img"">
                                </div>
                            </div>","75","","0","images/D36.png","","","","[""Smooth"",""Rough""]"
"","","","","","html-slider-response","159","362145","0.0-155.0","0nv2u1py28","NaN","<div style=""width:500px;"">
                                <p style=""font-size:50px; font-weight:bold;""
                                ></p>
                                <div style=""width:240px; margin: auto;"">
                                    <img src=""images/D104.png"" style= ""width:200px""alt=""img"">
                                </div>
                            </div>","74","","0","images/D104.png","","","","[""Smooth"",""Rough""]"
"","","","","","html-slider-response","160","363394","0.0-156.0","0nv2u1py28","NaN","<div style=""width:500px;"">
                                <p style=""font-size:50px; font-weight:bold;""
                                ></p>
                                <div style=""width:240px; margin: auto;"">
                                    <img src=""images/D17.png"" style= ""width:200px""alt=""img"">
                                </div>
                            </div>","-130","","0","images/D17.png","","","","[""Smooth"",""Rough""]"
"","","","","","html-slider-response","161","364146","0.0-157.0","0nv2u1py28","NaN","<div style=""width:500px;"">
                                <p style=""font-size:50px; font-weight:bold;""
                                ></p>
                                <div style=""width:240px; margin: auto;"">
                                    <img src=""images/D76.png"" style= ""width:200px""alt=""img"">
                                </div>
                            </div>","-127","","0","images/D76.png","","","","[""Smooth"",""Rough""]"
"","","","","","html-slider-response","162","365428","0.0-158.0","0nv2u1py28","NaN","<div style=""width:500px;"">
                                <p style=""font-size:50px; font-weight:bold;""
                                ></p>
                                <div style=""width:240px; margin: auto;"">
                                    <img src=""images/D24.png"" style= ""width:200px""alt=""img"">
                                </div>
                            </div>","138","","0","images/D24.png","","","","[""Smooth"",""Rough""]"
"","","","","","html-slider-response","163","366415","0.0-159.0","0nv2u1py28","NaN","<div style=""width:500px;"">
                                <p style=""font-size:50px; font-weight:bold;""
                                ></p>
                                <div style=""width:240px; margin: auto;"">
                                    <img src=""images/D35.png"" style= ""width:200px""alt=""img"">
                                </div>
                            </div>","-82","","0","images/D35.png","","","","[""Smooth"",""Rough""]"
"","","","","","html-slider-response","164","367298","0.0-160.0","0nv2u1py28","NaN","<div style=""width:500px;"">
                                <p style=""font-size:50px; font-weight:bold;""
                                ></p>
                                <div style=""width:240px; margin: auto;"">
                                    <img src=""images/D55.png"" style= ""width:200px""alt=""img"">
                                </div>
                            </div>","108","","0","images/D55.png","","","","[""Smooth"",""Rough""]"
"","","","","","html-slider-response","165","368044","0.0-161.0","0nv2u1py28","NaN","<div style=""width:500px;"">
                                <p style=""font-size:50px; font-weight:bold;""
                                ></p>
                                <div style=""width:240px; margin: auto;"">
                                    <img src=""images/D78.png"" style= ""width:200px""alt=""img"">
                                </div>
                            </div>","103","","0","images/D78.png","","","","[""Smooth"",""Rough""]"
"","","","","","html-slider-response","166","368933","0.0-162.0","0nv2u1py28","NaN","<div style=""width:500px;"">
                                <p style=""font-size:50px; font-weight:bold;""
                                ></p>
                                <div style=""width:240px; margin: auto;"">
                                    <img src=""images/D103.png"" style= ""width:200px""alt=""img"">
                                </div>
                            </div>","103","","0","images/D103.png","","","","[""Smooth"",""Rough""]"
"","","","","","html-slider-response","167","369762","0.0-163.0","0nv2u1py28","NaN","<div style=""width:500px;"">
                                <p style=""font-size:50px; font-weight:bold;""
                                ></p>
                                <div style=""width:240px; margin: auto;"">
                                    <img src=""images/D29.png"" style= ""width:200px""alt=""img"">
                                </div>
                            </div>","103","","0","images/D29.png","","","","[""Smooth"",""Rough""]"
"","","","","","html-slider-response","168","370716","0.0-164.0","0nv2u1py28","NaN","<div style=""width:500px;"">
                                <p style=""font-size:50px; font-weight:bold;""
                                ></p>
                                <div style=""width:240px; margin: auto;"">
                                    <img src=""images/D47.png"" style= ""width:200px""alt=""img"">
                                </div>
                            </div>","104","","0","images/D47.png","","","","[""Smooth"",""Rough""]"
"","","","","","html-slider-response","169","371811","0.0-165.0","0nv2u1py28","NaN","<div style=""width:500px;"">
                                <p style=""font-size:50px; font-weight:bold;""
                                ></p>
                                <div style=""width:240px; margin: auto;"">
                                    <img src=""images/D8.png"" style= ""width:200px""alt=""img"">
                                </div>
                            </div>","104","","0","images/D8.png","","","","[""Smooth"",""Rough""]"
"","","","","","html-slider-response","170","373545","0.0-166.0","0nv2u1py28","NaN","<div style=""width:500px;"">
                                <p style=""font-size:50px; font-weight:bold;""
                                ></p>
                                <div style=""width:240px; margin: auto;"">
                                    <img src=""images/D9.png"" style= ""width:200px""alt=""img"">
                                </div>
                            </div>","-125","","0","images/D9.png","","","","[""Smooth"",""Rough""]"
"","","","","","html-slider-response","171","374415","0.0-167.0","0nv2u1py28","NaN","<div style=""width:500px;"">
                                <p style=""font-size:50px; font-weight:bold;""
                                ></p>
                                <div style=""width:240px; margin: auto;"">
                                    <img src=""images/D68.png"" style= ""width:200px""alt=""img"">
                                </div>
                            </div>","-125","","0","images/D68.png","","","","[""Smooth"",""Rough""]"
"","","","","","html-slider-response","172","375382","0.0-168.0","0nv2u1py28","NaN","<div style=""width:500px;"">
                                <p style=""font-size:50px; font-weight:bold;""
                                ></p>
                                <div style=""width:240px; margin: auto;"">
                                    <img src=""images/D4.png"" style= ""width:200px""alt=""img"">
                                </div>
                            </div>","-125","","0","images/D4.png","","","","[""Smooth"",""Rough""]"
"","","","","","html-slider-response","173","376328","0.0-169.0","0nv2u1py28","NaN","<div style=""width:500px;"">
                                <p style=""font-size:50px; font-weight:bold;""
                                ></p>
                                <div style=""width:240px; margin: auto;"">
                                    <img src=""images/D75.png"" style= ""width:200px""alt=""img"">
                                </div>
                            </div>","-125","","0","images/D75.png","","","","[""Smooth"",""Rough""]"
"","","","","","html-slider-response","174","377399","0.0-170.0","0nv2u1py28","NaN","<div style=""width:500px;"">
                                <p style=""font-size:50px; font-weight:bold;""
                                ></p>
                                <div style=""width:240px; margin: auto;"">
                                    <img src=""images/D81.png"" style= ""width:200px""alt=""img"">
                                </div>
                            </div>","-125","","0","images/D81.png","","","","[""Smooth"",""Rough""]"
"","","","","","html-slider-response","175","378383","0.0-171.0","0nv2u1py28","NaN","<div style=""width:500px;"">
                                <p style=""font-size:50px; font-weight:bold;""
                                ></p>
                                <div style=""width:240px; margin: auto;"">
                                    <img src=""images/D16.png"" style= ""width:200px""alt=""img"">
                                </div>
                            </div>","-125","","0","images/D16.png","","","","[""Smooth"",""Rough""]"
"","","","","","html-slider-response","176","379361","0.0-172.0","0nv2u1py28","NaN","<div style=""width:500px;"">
                                <p style=""font-size:50px; font-weight:bold;""
                                ></p>
                                <div style=""width:240px; margin: auto;"">
                                    <img src=""images/D21.png"" style= ""width:200px""alt=""img"">
                                </div>
                            </div>","-125","","0","images/D21.png","","","","[""Smooth"",""Rough""]"
"","","","","","html-slider-response","177","380594","0.0-173.0","0nv2u1py28","NaN","<div style=""width:500px;"">
                                <p style=""font-size:50px; font-weight:bold;""
                                ></p>
                                <div style=""width:240px; margin: auto;"">
                                    <img src=""images/D92.png"" style= ""width:200px""alt=""img"">
                                </div>
                            </div>","126","","0","images/D92.png","","","","[""Smooth"",""Rough""]"
"","","","","","html-slider-response","178","381495","0.0-174.0","0nv2u1py28","NaN","<div style=""width:500px;"">
                                <p style=""font-size:50px; font-weight:bold;""
                                ></p>
                                <div style=""width:240px; margin: auto;"">
                                    <img src=""images/D64.png"" style= ""width:200px""alt=""img"">
                                </div>
                            </div>","126","","0","images/D64.png","","","","[""Smooth"",""Rough""]"
"","","","","","html-slider-response","179","382515","0.0-175.0","0nv2u1py28","NaN","<div style=""width:500px;"">
                                <p style=""font-size:50px; font-weight:bold;""
                                ></p>
                                <div style=""width:240px; margin: auto;"">
                                    <img src=""images/D18.png"" style= ""width:200px""alt=""img"">
                                </div>
                            </div>","-86","","0","images/D18.png","","","","[""Smooth"",""Rough""]"
"","","","","","html-slider-response","180","383364","0.0-176.0","0nv2u1py28","NaN","<div style=""width:500px;"">
                                <p style=""font-size:50px; font-weight:bold;""
                                ></p>
                                <div style=""width:240px; margin: auto;"">
                                    <img src=""images/D19.png"" style= ""width:200px""alt=""img"">
                                </div>
                            </div>","103","","0","images/D19.png","","","","[""Smooth"",""Rough""]"
"","","","","","html-slider-response","181","384263","0.0-177.0","0nv2u1py28","NaN","<div style=""width:500px;"">
                                <p style=""font-size:50px; font-weight:bold;""
                                ></p>
                                <div style=""width:240px; margin: auto;"">
                                    <img src=""images/D84.png"" style= ""width:200px""alt=""img"">
                                </div>
                            </div>","-94","","0","images/D84.png","","","","[""Smooth"",""Rough""]"
"","","","","","html-slider-response","182","385096","0.0-178.0","0nv2u1py28","NaN","<div style=""width:500px;"">
                                <p style=""font-size:50px; font-weight:bold;""
                                ></p>
                                <div style=""width:240px; margin: auto;"">
                                    <img src=""images/D3.png"" style= ""width:200px""alt=""img"">
                                </div>
                            </div>","-94","","0","images/D3.png","","","","[""Smooth"",""Rough""]"
"","","","","","html-slider-response","183","385879","0.0-179.0","0nv2u1py28","NaN","<div style=""width:500px;"">
                                <p style=""font-size:50px; font-weight:bold;""
                                ></p>
                                <div style=""width:240px; margin: auto;"">
                                    <img src=""images/D49.png"" style= ""width:200px""alt=""img"">
                                </div>
                            </div>","-94","","0","images/D49.png","","","","[""Smooth"",""Rough""]"
"","","","","","html-slider-response","184","386716","0.0-180.0","0nv2u1py28","NaN","<div style=""width:500px;"">
                                <p style=""font-size:50px; font-weight:bold;""
                                ></p>
                                <div style=""width:240px; margin: auto;"">
                                    <img src=""images/D82.png"" style= ""width:200px""alt=""img"">
                                </div>
                            </div>","-94","","0","images/D82.png","","","","[""Smooth"",""Rough""]"
"","","","","","html-slider-response","185","387795","0.0-181.0","0nv2u1py28","NaN","<div style=""width:500px;"">
                                <p style=""font-size:50px; font-weight:bold;""
                                ></p>
                                <div style=""width:240px; margin: auto;"">
                                    <img src=""images/D51.png"" style= ""width:200px""alt=""img"">
                                </div>
                            </div>","-94","","0","images/D51.png","","","","[""Smooth"",""Rough""]"
"","","","","","html-slider-response","186","388577","0.0-182.0","0nv2u1py28","NaN","<div style=""width:500px;"">
                                <p style=""font-size:50px; font-weight:bold;""
                                ></p>
                                <div style=""width:240px; margin: auto;"">
                                    <img src=""images/D25.png"" style= ""width:200px""alt=""img"">
                                </div>
                            </div>","-94","","0","images/D25.png","","","","[""Smooth"",""Rough""]"
"","","","","","html-slider-response","187","389615","0.0-183.0","0nv2u1py28","NaN","<div style=""width:500px;"">
                                <p style=""font-size:50px; font-weight:bold;""
                                ></p>
