"success","timeout","failed_images","failed_audio","failed_video","trial_type","trial_index","time_elapsed","internal_node_id","subject_id","rt","stimulus","response","question_order","slider_start","image_path","practiceTrial","practiceTrialNum","correct","slider_labels"
"true","false","[]","[]","[]","preload","0","558","0.0-0.0","1vgtyyhhsd","","","","","","","","","",""
"","","","","","html-button-response","1","5444","0.0-1.0","1vgtyyhhsd","4883","<div style='text-align:center; font-size:20px; line-height:25px; width: 1200px;'>
                Welcome to our experiment! <br>
                <br>At the bottom of this screen, you will see a button that says 'Begin Experiment.
                <br>Please only click that button when you are ready to complete the 25 minute experiment in one sitting. <br>
                <br> Once you click that button, it will not be possible to restart the experiment. <br><br>","0","","","","","","",""
"true","","","","","fullscreen","2","8182","0.0-2.0","1vgtyyhhsd","1732","","","","","","","","",""
"","","","","","survey-multi-select","3","17264","0.0-3.0","1vgtyyhhsd","9077","","{""Consent"":[""<strong>I consent</strong>""]}","[0]","","","","","",""
"","","","","","html-button-response","4","18393","0.0-4.0","1vgtyyhhsd","1127","Welcome! <p> This experiment involves two parts: demographic information, followed by the experimental task.<p> It will take about 25 minutes to complete both parts.","0","","","","","","",""
"","","","","","survey-text","5","51480","0.0-5.0","1vgtyyhhsd","33070","","{""Age"":""18"",""Gender"":""Male"",""Race/ethnicity"":""South Asian""}","","","","","","",""
"","","","","","html-slider-response","6","90025","0.0-6.0","1vgtyyhhsd","38543","
                <div style='text-align:center; height: auto; margin-left=-100px; margin-bottom: -20px; font-size:20px; line-height:5px; width: 1200px;'>
                    <br>During this experiment, you will see a series of textures, one at a time, like the ones below: 
                </div>
                    <br>
                    <br>
                    <img src=""anchoring_visual_textures.png"" alt=""img"" style=""max-width:1200px; margin-left: -10px;"">
                </div>
                <div style=""clear: both;""></div>
                </div>
                    <div style='text-align:center; margin-left=-100px; font-size:20px; line-height:20px; width: 1200px; margin-top: -50px;'>
                    
                    <br> For each texture, you will be asked to rate where you think it falls on each of the response scales with the following endpoints:
                    </div>
                            <div style=""text-align: center; width: 1400px; "">
                                <p style=""font-size:20px; line-height:5px; ""><b>Blobby</b> versus <b>Stripey</b></p>
                                <p style=""font-size:20px; line-height:5px; ""><b>Rounded</b> versus <b>Rectangular</b></p>
                                <p style=""font-size:20px;line-height:5px;""><b>Coarse</b> versus <b>Fine</b></p>
                                <p style=""font-size:20px;line-height:5px; ""><b>Rough</b> versus <b>Smooth</b></p>
                                <p style=""font-size:20px;line-height:5px; ""><b>Random</b> versus <b>Non-Random</b></p>
                                <p style=""font-size:20px;line-height:5px;""><b>Hard</b> versus <b>Soft</b></p>
                            </div>
                            <div style='text-align:center; font-size:20px; line-height:20px; width: 1400px;'>
                    
                    Each trial will include one texture and one response scale. You will be asked to make your rating by sliding the cursor along a slider response scale like the one below.
                    <br><br> Before beginning, please look at the textures and scales. For each scale, think about the texture you associate most with the left endpoint. When you see that texture for that response scale, please click near the left of the scale.
                    <br><br> Now, please think about the texture you associate most with the right endpoint of each scale. When you see that texture for that response scale, please click near the right of the scale. 
                    <br><br> If you think a texture is not strongly associated with either endpoint of the scale, please click near the midpoint of the scale. Please use the full range of the scale. 
                    <br><br> You will be asked to rate each texture for a given scale before moving on to the next scale.
                    <br><br> Please press the 'Continue' button for instructions on how to use the slider.                     <br><br>
                ","2","","0","visual_textures_anchoring.png","true","","",""
"","","","","","html-button-response","7","91609","0.0-7.0","1vgtyyhhsd","1584","<div style=""width:1200px; margin-top:-150px;""><p style=""text-align:center; font-size:24px;"">To move the slider, click and drag your cursor to the location of the scale where you would like to make your rating and then let go. <br><br> When you let go of the slider, your response will be recorded and the next trial will begin. <br><br><br>
                We are interested in your initial impressions of each texture and scale, so please go with your first intuition. <br><br>
                Before you begin the experiment, there will be four training trials for you to practice using the scale. <br><br><br><br></div>
                <div style=""width:1200px;""><p style=""text-align:center; font-size:20px;"">When you are ready to start the training trials, please click ""Continue"".</p></div>","0","","","","","","",""
"","","","","","html-slider-response","8","93586","0.0-8.0-0.0","1vgtyyhhsd","NaN","<div style=""width:500px;"">
                                <p style=""font-size:25px;"">Please move the slider all the way to the <br> right endpoint of the scale</p>

                                </div>
                            </div>","200","","0","","true","0","true",""
"","","","","","html-button-response","9","94759","0.0-8.0-1.0","1vgtyyhhsd","671","<p align='center'><b>Good job!</b> Click on 'Continue' to proceed.</p>","0","","","","","","",""
"","","","","","html-slider-response","10","95903","0.0-9.0-0.0","1vgtyyhhsd","NaN","<div style=""width:500px;"">
                                <p style=""font-size:25px;"">Please move the slider all the way to the <br> left endpoint of the scale</p>

                                </div>
                            </div>","-200","","0","","true","1","true",""
"","","","","","html-button-response","11","97477","0.0-9.0-1.0","1vgtyyhhsd","1072","<p align='center'><b>Good job!</b> Click on 'Continue' to proceed.</p>","0","","","","","","",""
"","","","","","html-slider-response","12","98686","0.0-10.0-0.0","1vgtyyhhsd","NaN","<div style=""width:500px;"">
                                <p style=""font-size:25px;"">Please move the slider halfway between the center and right endpoint of the scale</p>

                                </div>
                            </div>","3","","0","","true","2","false",""
"","","","","","html-button-response","13","99893","0.0-10.0-1.0","1vgtyyhhsd","705","<p align='center'><b>Not quite!</b> The slider was not placed near the instructed locattion. Click on 'Continue' to try again. </p>","0","","","","","","",""
"","","","","","html-slider-response","14","101369","0.0-10.1-0.1","1vgtyyhhsd","NaN","<div style=""width:500px;"">
                                <p style=""font-size:25px;"">Please move the slider halfway between the center and right endpoint of the scale</p>

                                </div>
                            </div>","3","","0","","true","2","false",""
"","","","","","html-button-response","15","102975","0.0-10.1-1.1","1vgtyyhhsd","1103","<p align='center'><b>Not quite!</b> The slider was not placed near the instructed locattion. Click on 'Continue' to try again. </p>","0","","","","","","",""
"","","","","","html-slider-response","16","105753","0.0-10.2-0.2","1vgtyyhhsd","NaN","<div style=""width:500px;"">
                                <p style=""font-size:25px;"">Please move the slider halfway between the center and right endpoint of the scale</p>

                                </div>
                            </div>","98","","0","","true","2","true",""
"","","","","","html-button-response","17","106677","0.0-10.2-1.2","1vgtyyhhsd","422","<p align='center'><b>Good job!</b> Click on 'Continue' to proceed.</p>","0","","","","","","",""
"","","","","","html-slider-response","18","108702","0.0-11.0-0.0","1vgtyyhhsd","NaN","<div style=""width:500px;"">
                                <p style=""font-size:25px;"">Please move the slider halfway between the center and left endpoint of the scale</p>

                                </div>
                            </div>","-112","","0","","true","3","false",""
"","","","","","html-button-response","19","110876","0.0-11.0-1.0","1vgtyyhhsd","1672","<p align='center'><b>Not quite!</b> The slider was not placed near the instructed locattion. Click on 'Continue' to try again. </p>","0","","","","","","",""
"","","","","","html-slider-response","20","113386","0.0-11.1-0.1","1vgtyyhhsd","NaN","<div style=""width:500px;"">
                                <p style=""font-size:25px;"">Please move the slider halfway between the center and left endpoint of the scale</p>

                                </div>
                            </div>","-113","","0","","true","3","false",""
"","","","","","html-button-response","21","114576","0.0-11.1-1.1","1vgtyyhhsd","688","<p align='center'><b>Not quite!</b> The slider was not placed near the instructed locattion. Click on 'Continue' to try again. </p>","0","","","","","","",""
"","","","","","html-slider-response","22","118320","0.0-11.2-0.2","1vgtyyhhsd","NaN","<div style=""width:500px;"">
                                <p style=""font-size:25px;"">Please move the slider halfway between the center and left endpoint of the scale</p>

                                </div>
                            </div>","-111","","0","","true","3","false",""
"","","","","","html-button-response","23","120460","0.0-11.2-1.2","1vgtyyhhsd","1638","<p align='center'><b>Not quite!</b> The slider was not placed near the instructed locattion. Click on 'Continue' to try again. </p>","0","","","","","","",""
"","","","","","html-slider-response","24","121353","0.0-11.3-0.3","1vgtyyhhsd","NaN","<div style=""width:500px;"">
                                <p style=""font-size:25px;"">Please move the slider halfway between the center and left endpoint of the scale</p>

                                </div>
                            </div>","-97","","0","","true","3","true",""
"","","","","","html-button-response","25","122459","0.0-11.3-1.3","1vgtyyhhsd","605","<p align='center'><b>Good job!</b> Click on 'Continue' to proceed.</p>","0","","","","","","",""
"","","","","","html-button-response","26","123176","0.0-12.0","1vgtyyhhsd","715","<div style=""width:800px; margin-top:-300px;""><p style=""text-align:center; font-size:22px; line-height:25px;""""> Great job! You've completed the practice trials.</div>
                     <div style=""width:800px; margin-top:-20px;""><p style=""text-align:center""><br><br> In the following trials, you will be asked to rate textures on each scale one-by-one. <br> You will be given opportunities to take breaks when you have completed each block of trials. There are six total blocks of trials. <br><br> Please click continue to begin the main task.<br><br><br> </div>","0","","","","","","",""
"","","","","","html-button-response","27","125127","0.0-13.0","1vgtyyhhsd","1950","In the following trials, you will be asked to rate textures on the scale <b>Hard</b> versus <b>Soft</b>. Please click 'Continue' when you are ready proceed.","0","","","","","","",""
"","","","","","html-slider-response","28","128253","0.0-14.0","1vgtyyhhsd","NaN","<div style=""width:500px;"">
                                <p style=""font-size:50px; font-weight:bold;""
                                ></p>
                                <div style=""width:240px; margin: auto;"">
                                    <img src=""images/D24.png"" style= ""width:200px""alt=""img"">
                                </div>
                            </div>","-194","","0","images/D24.png","","","","[""Hard"",""Soft""]"
"","","","","","html-slider-response","29","129819","0.0-15.0","1vgtyyhhsd","NaN","<div style=""width:500px;"">
                                <p style=""font-size:50px; font-weight:bold;""
                                ></p>
                                <div style=""width:240px; margin: auto;"">
                                    <img src=""images/D104.png"" style= ""width:200px""alt=""img"">
                                </div>
                            </div>","110","","0","images/D104.png","","","","[""Hard"",""Soft""]"
"","","","","","html-slider-response","30","132003","0.0-16.0","1vgtyyhhsd","NaN","<div style=""width:500px;"">
                                <p style=""font-size:50px; font-weight:bold;""
                                ></p>
                                <div style=""width:240px; margin: auto;"">
                                    <img src=""images/D21.png"" style= ""width:200px""alt=""img"">
                                </div>
                            </div>","89","","0","images/D21.png","","","","[""Hard"",""Soft""]"
"","","","","","html-slider-response","31","133136","0.0-17.0","1vgtyyhhsd","NaN","<div style=""width:500px;"">
                                <p style=""font-size:50px; font-weight:bold;""
                                ></p>
                                <div style=""width:240px; margin: auto;"">
                                    <img src=""images/D83.png"" style= ""width:200px""alt=""img"">
                                </div>
                            </div>","-81","","0","images/D83.png","","","","[""Hard"",""Soft""]"
"","","","","","html-slider-response","32","134369","0.0-18.0","1vgtyyhhsd","NaN","<div style=""width:500px;"">
                                <p style=""font-size:50px; font-weight:bold;""
                                ></p>
                                <div style=""width:240px; margin: auto;"">
                                    <img src=""images/D81.png"" style= ""width:200px""alt=""img"">
                                </div>
                            </div>","79","","0","images/D81.png","","","","[""Hard"",""Soft""]"
"","","","","","html-slider-response","33","135386","0.0-19.0","1vgtyyhhsd","NaN","<div style=""width:500px;"">
                                <p style=""font-size:50px; font-weight:bold;""
                                ></p>
                                <div style=""width:240px; margin: auto;"">
                                    <img src=""images/D82.png"" style= ""width:200px""alt=""img"">
                                </div>
                            </div>","-70","","0","images/D82.png","","","","[""Hard"",""Soft""]"
"","","","","","html-slider-response","34","136836","0.0-20.0","1vgtyyhhsd","NaN","<div style=""width:500px;"">
                                <p style=""font-size:50px; font-weight:bold;""
                                ></p>
                                <div style=""width:240px; margin: auto;"">
                                    <img src=""images/D74.png"" style= ""width:200px""alt=""img"">
                                </div>
                            </div>","-46","","0","images/D74.png","","","","[""Hard"",""Soft""]"
"","","","","","html-slider-response","35","138069","0.0-21.0","1vgtyyhhsd","NaN","<div style=""width:500px;"">
                                <p style=""font-size:50px; font-weight:bold;""
                                ></p>
                                <div style=""width:240px; margin: auto;"">
                                    <img src=""images/D4.png"" style= ""width:200px""alt=""img"">
                                </div>
                            </div>","61","","0","images/D4.png","","","","[""Hard"",""Soft""]"
"","","","","","html-slider-response","36","139152","0.0-22.0","1vgtyyhhsd","NaN","<div style=""width:500px;"">
                                <p style=""font-size:50px; font-weight:bold;""
                                ></p>
                                <div style=""width:240px; margin: auto;"">
                                    <img src=""images/D8.png"" style= ""width:200px""alt=""img"">
                                </div>
                            </div>","-49","","0","images/D8.png","","","","[""Hard"",""Soft""]"
"","","","","","html-slider-response","37","139936","0.0-23.0","1vgtyyhhsd","NaN","<div style=""width:500px;"">
                                <p style=""font-size:50px; font-weight:bold;""
                                ></p>
                                <div style=""width:240px; margin: auto;"">
                                    <img src=""images/D87.png"" style= ""width:200px""alt=""img"">
                                </div>
                            </div>","30","","0","images/D87.png","","","","[""Hard"",""Soft""]"
"","","","","","html-slider-response","38","140603","0.0-24.0","1vgtyyhhsd","NaN","<div style=""width:500px;"">
                                <p style=""font-size:50px; font-weight:bold;""
                                ></p>
                                <div style=""width:240px; margin: auto;"">
                                    <img src=""images/D16.png"" style= ""width:200px""alt=""img"">
                                </div>
                            </div>","-58","","0","images/D16.png","","","","[""Hard"",""Soft""]"
"","","","","","html-slider-response","39","141286","0.0-25.0","1vgtyyhhsd","NaN","<div style=""width:500px;"">
                                <p style=""font-size:50px; font-weight:bold;""
                                ></p>
                                <div style=""width:240px; margin: auto;"">
                                    <img src=""images/D84.png"" style= ""width:200px""alt=""img"">
                                </div>
                            </div>","42","","0","images/D84.png","","","","[""Hard"",""Soft""]"
"","","","","","html-slider-response","40","141952","0.0-26.0","1vgtyyhhsd","NaN","<div style=""width:500px;"">
                                <p style=""font-size:50px; font-weight:bold;""
                                ></p>
                                <div style=""width:240px; margin: auto;"">
                                    <img src=""images/D106.png"" style= ""width:200px""alt=""img"">
                                </div>
                            </div>","-41","","0","images/D106.png","","","","[""Hard"",""Soft""]"
"","","","","","html-slider-response","41","143253","0.0-27.0","1vgtyyhhsd","NaN","<div style=""width:500px;"">
                                <p style=""font-size:50px; font-weight:bold;""
                                ></p>
                                <div style=""width:240px; margin: auto;"">
                                    <img src=""images/D19.png"" style= ""width:200px""alt=""img"">
                                </div>
                            </div>","50","","0","images/D19.png","","","","[""Hard"",""Soft""]"
"","","","","","html-slider-response","42","144219","0.0-28.0","1vgtyyhhsd","NaN","<div style=""width:500px;"">
                                <p style=""font-size:50px; font-weight:bold;""
                                ></p>
                                <div style=""width:240px; margin: auto;"">
                                    <img src=""images/D76.png"" style= ""width:200px""alt=""img"">
                                </div>
                            </div>","-70","","0","images/D76.png","","","","[""Hard"",""Soft""]"
"","","","","","html-slider-response","43","145570","0.0-29.0","1vgtyyhhsd","NaN","<div style=""width:500px;"">
                                <p style=""font-size:50px; font-weight:bold;""
                                ></p>
                                <div style=""width:240px; margin: auto;"">
                                    <img src=""images/D53.png"" style= ""width:200px""alt=""img"">
                                </div>
                            </div>","101","","0","images/D53.png","","","","[""Hard"",""Soft""]"
"","","","","","html-slider-response","44","146652","0.0-30.0","1vgtyyhhsd","NaN","<div style=""width:500px;"">
                                <p style=""font-size:50px; font-weight:bold;""
                                ></p>
                                <div style=""width:240px; margin: auto;"">
                                    <img src=""images/D102.png"" style= ""width:200px""alt=""img"">
                                </div>
                            </div>","-70","","0","images/D102.png","","","","[""Hard"",""Soft""]"
"","","","","","html-slider-response","45","147802","0.0-31.0","1vgtyyhhsd","NaN","<div style=""width:500px;"">
                                <p style=""font-size:50px; font-weight:bold;""
                                ></p>
                                <div style=""width:240px; margin: auto;"">
                                    <img src=""images/D34.png"" style= ""width:200px""alt=""img"">
                                </div>
                            </div>","-53","","0","images/D34.png","","","","[""Hard"",""Soft""]"
"","","","","","html-slider-response","46","149369","0.0-32.0","1vgtyyhhsd","NaN","<div style=""width:500px;"">
                                <p style=""font-size:50px; font-weight:bold;""
                                ></p>
                                <div style=""width:240px; margin: auto;"">
                                    <img src=""images/D68.png"" style= ""width:200px""alt=""img"">
                                </div>
                            </div>","-79","","0","images/D68.png","","","","[""Hard"",""Soft""]"
"","","","","","html-slider-response","47","150902","0.0-33.0","1vgtyyhhsd","NaN","<div style=""width:500px;"">
                                <p style=""font-size:50px; font-weight:bold;""
                                ></p>
                                <div style=""width:240px; margin: auto;"">
                                    <img src=""images/D64.png"" style= ""width:200px""alt=""img"">
                                </div>
                            </div>","-85","","0","images/D64.png","","","","[""Hard"",""Soft""]"
"","","","","","html-slider-response","48","152402","0.0-34.0","1vgtyyhhsd","NaN","<div style=""width:500px;"">
                                <p style=""font-size:50px; font-weight:bold;""
                                ></p>
                                <div style=""width:240px; margin: auto;"">
                                    <img src=""images/D9.png"" style= ""width:200px""alt=""img"">
                                </div>
                            </div>","-83","","0","images/D9.png","","","","[""Hard"",""Soft""]"
"","","","","","html-slider-response","49","153752","0.0-35.0","1vgtyyhhsd","NaN","<div style=""width:500px;"">
                                <p style=""font-size:50px; font-weight:bold;""
                                ></p>
                                <div style=""width:240px; margin: auto;"">
                                    <img src=""images/D79.png"" style= ""width:200px""alt=""img"">
                                </div>
                            </div>","60","","0","images/D79.png","","","","[""Hard"",""Soft""]"
"","","","","","html-slider-response","50","155002","0.0-36.0","1vgtyyhhsd","NaN","<div style=""width:500px;"">
                                <p style=""font-size:50px; font-weight:bold;""
                                ></p>
                                <div style=""width:240px; margin: auto;"">
                                    <img src=""images/D35.png"" style= ""width:200px""alt=""img"">
                                </div>
                            </div>","-77","","0","images/D35.png","","","","[""Hard"",""Soft""]"
"","","","","","html-slider-response","51","156719","0.0-37.0","1vgtyyhhsd","NaN","<div style=""width:500px;"">
                                <p style=""font-size:50px; font-weight:bold;""
                                ></p>
                                <div style=""width:240px; margin: auto;"">
                                    <img src=""images/D51.png"" style= ""width:200px""alt=""img"">
                                </div>
                            </div>","-69","","0","images/D51.png","","","","[""Hard"",""Soft""]"
"","","","","","html-slider-response","52","158619","0.0-38.0","1vgtyyhhsd","NaN","<div style=""width:500px;"">
                                <p style=""font-size:50px; font-weight:bold;""
                                ></p>
                                <div style=""width:240px; margin: auto;"">
                                    <img src=""images/D78.png"" style= ""width:200px""alt=""img"">
                                </div>
                            </div>","75","","0","images/D78.png","","","","[""Hard"",""Soft""]"
"","","","","","html-slider-response","53","159903","0.0-39.0","1vgtyyhhsd","NaN","<div style=""width:500px;"">
                                <p style=""font-size:50px; font-weight:bold;""
                                ></p>
                                <div style=""width:240px; margin: auto;"">
                                    <img src=""images/D85.png"" style= ""width:200px""alt=""img"">
                                </div>
                            </div>","-73","","0","images/D85.png","","","","[""Hard"",""Soft""]"
"","","","","","html-slider-response","54","170269","0.0-40.0","1vgtyyhhsd","NaN","<div style=""width:500px;"">
                                <p style=""font-size:50px; font-weight:bold;""
                                ></p>
                                <div style=""width:240px; margin: auto;"">
                                    <img src=""images/D75.png"" style= ""width:200px""alt=""img"">
                                </div>
                            </div>","-71","","0","images/D75.png","","","","[""Hard"",""Soft""]"
"","","","","","html-slider-response","55","172602","0.0-41.0","1vgtyyhhsd","NaN","<div style=""width:500px;"">
                                <p style=""font-size:50px; font-weight:bold;""
                                ></p>
                                <div style=""width:240px; margin: auto;"">
                                    <img src=""images/D17.png"" style= ""width:200px""alt=""img"">
                                </div>
                            </div>","76","","0","images/D17.png","","","","[""Hard"",""Soft""]"
"","","","","","html-slider-response","56","175303","0.0-42.0","1vgtyyhhsd","NaN","<div style=""width:500px;"">
                                <p style=""font-size:50px; font-weight:bold;""
                                ></p>
                                <div style=""width:240px; margin: auto;"">
                                    <img src=""images/D52.png"" style= ""width:200px""alt=""img"">
                                </div>
                            </div>","-86","","0","images/D52.png","","","","[""Hard"",""Soft""]"
"","","","","","html-slider-response","57","180719","0.0-43.0","1vgtyyhhsd","NaN","<div style=""width:500px;"">
                                <p style=""font-size:50px; font-weight:bold;""
                                ></p>
                                <div style=""width:240px; margin: auto;"">
                                    <img src=""images/D55.png"" style= ""width:200px""alt=""img"">
                                </div>
                            </div>","-94","","0","images/D55.png","","","","[""Hard"",""Soft""]"
"","","","","","html-slider-response","58","182169","0.0-44.0","1vgtyyhhsd","NaN","<div style=""width:500px;"">
                                <p style=""font-size:50px; font-weight:bold;""
                                ></p>
                                <div style=""width:240px; margin: auto;"">
                                    <img src=""images/D37.png"" style= ""width:200px""alt=""img"">
                                </div>
                            </div>","-108","","0","images/D37.png","","","","[""Hard"",""Soft""]"
"","","","","","html-slider-response","59","183252","0.0-45.0","1vgtyyhhsd","NaN","<div style=""width:500px;"">
                                <p style=""font-size:50px; font-weight:bold;""
                                ></p>
                                <div style=""width:240px; margin: auto;"">
                                    <img src=""images/D22.png"" style= ""width:200px""alt=""img"">
                                </div>
                            </div>","66","","0","images/D22.png","","","","[""Hard"",""Soft""]"
"","","","","","html-slider-response","60","184286","0.0-46.0","1vgtyyhhsd","NaN","<div style=""width:500px;"">
                                <p style=""font-size:50px; font-weight:bold;""
                                ></p>
                                <div style=""width:240px; margin: auto;"">
                                    <img src=""images/D18.png"" style= ""width:200px""alt=""img"">
                                </div>
                            </div>","-72","","0","images/D18.png","","","","[""Hard"",""Soft""]"
"","","","","","html-slider-response","61","185353","0.0-47.0","1vgtyyhhsd","NaN","<div style=""width:500px;"">
                                <p style=""font-size:50px; font-weight:bold;""
                                ></p>
                                <div style=""width:240px; margin: auto;"">
                                    <img src=""images/D101.png"" style= ""width:200px""alt=""img"">
                                </div>
                            </div>","47","","0","images/D101.png","","","","[""Hard"",""Soft""]"
"","","","","","html-slider-response","62","186336","0.0-48.0","1vgtyyhhsd","NaN","<div style=""width:500px;"">
                                <p style=""font-size:50px; font-weight:bold;""
                                ></p>
                                <div style=""width:240px; margin: auto;"">
                                    <img src=""images/D103.png"" style= ""width:200px""alt=""img"">
                                </div>
                            </div>","-50","","0","images/D103.png","","","","[""Hard"",""Soft""]"
"","","","","","html-slider-response","63","193419","0.0-49.0","1vgtyyhhsd","NaN","<div style=""width:500px;"">
                                <p style=""font-size:50px; font-weight:bold;""
                                ></p>
                                <div style=""width:240px; margin: auto;"">
                                    <img src=""images/D25.png"" style= ""width:200px""alt=""img"">
                                </div>
                            </div>","-72","","0","images/D25.png","","","","[""Hard"",""Soft""]"
"","","","","","html-slider-response","64","194969","0.0-50.0","1vgtyyhhsd","NaN","<div style=""width:500px;"">
                                <p style=""font-size:50px; font-weight:bold;""
                                ></p>
                                <div style=""width:240px; margin: auto;"">
                                    <img src=""images/D3.png"" style= ""width:200px""alt=""img"">
                                </div>
                            </div>","-94","","0","images/D3.png","","","","[""Hard"",""Soft""]"
"","","","","","html-slider-response","65","197652","0.0-51.0","1vgtyyhhsd","NaN","<div style=""width:500px;"">
                                <p style=""font-size:50px; font-weight:bold;""
                                ></p>
                                <div style=""width:240px; margin: auto;"">
                                    <img src=""images/D92.png"" style= ""width:200px""alt=""img"">
                                </div>
                            </div>","-66","","0","images/D92.png","","","","[""Hard"",""Soft""]"
"","","","","","html-slider-response","66","199352","0.0-52.0","1vgtyyhhsd","NaN","<div style=""width:500px;"">
                                <p style=""font-size:50px; font-weight:bold;""
                                ></p>
                                <div style=""width:240px; margin: auto;"">
                                    <img src=""images/D94.png"" style= ""width:200px""alt=""img"">
                                </div>
                            </div>","-74","","0","images/D94.png","","","","[""Hard"",""Soft""]"
"","","","","","html-slider-response","67","201002","0.0-53.0","1vgtyyhhsd","NaN","<div style=""width:500px;"">
                                <p style=""font-size:50px; font-weight:bold;""
                                ></p>
                                <div style=""width:240px; margin: auto;"">
                                    <img src=""images/D66.png"" style= ""width:200px""alt=""img"">
                                </div>
                            </div>","68","","0","images/D66.png","","","","[""Hard"",""Soft""]"
"","","","","","html-slider-response","68","203403","0.0-54.0","1vgtyyhhsd","NaN","<div style=""width:500px;"">
                                <p style=""font-size:50px; font-weight:bold;""
                                ></p>
                                <div style=""width:240px; margin: auto;"">
                                    <img src=""images/D65.png"" style= ""width:200px""alt=""img"">
                                </div>
                            </div>","-57","","0","images/D65.png","","","","[""Hard"",""Soft""]"
"","","","","","html-slider-response","69","205152","0.0-55.0","1vgtyyhhsd","NaN","<div style=""width:500px;"">
                                <p style=""font-size:50px; font-weight:bold;""
                                ></p>
                                <div style=""width:240px; margin: auto;"">
                                    <img src=""images/D1.png"" style= ""width:200px""alt=""img"">
                                </div>
                            </div>","-61","","0","images/D1.png","","","","[""Hard"",""Soft""]"
"","","","","","html-slider-response","70","206819","0.0-56.0","1vgtyyhhsd","NaN","<div style=""width:500px;"">
                                <p style=""font-size:50px; font-weight:bold;""
                                ></p>
                                <div style=""width:240px; margin: auto;"">
                                    <img src=""images/D57.png"" style= ""width:200px""alt=""img"">
                                </div>
                            </div>","54","","0","images/D57.png","","","","[""Hard"",""Soft""]"
"","","","","","html-slider-response","71","207885","0.0-57.0","1vgtyyhhsd","NaN","<div style=""width:500px;"">
                                <p style=""font-size:50px; font-weight:bold;""
                                ></p>
                                <div style=""width:240px; margin: auto;"">
                                    <img src=""images/D95.png"" style= ""width:200px""alt=""img"">
                                </div>
                            </div>","-48","","0","images/D95.png","","","","[""Hard"",""Soft""]"
"","","","","","html-slider-response","72","209369","0.0-58.0","1vgtyyhhsd","NaN","<div style=""width:500px;"">
                                <p style=""font-size:50px; font-weight:bold;""
                                ></p>
                                <div style=""width:240px; margin: auto;"">
                                    <img src=""images/D111.png"" style= ""width:200px""alt=""img"">
                                </div>
                            </div>","46","","0","images/D111.png","","","","[""Hard"",""Soft""]"
"","","","","","html-slider-response","73","210653","0.0-59.0","1vgtyyhhsd","NaN","<div style=""width:500px;"">
                                <p style=""font-size:50px; font-weight:bold;""
                                ></p>
                                <div style=""width:240px; margin: auto;"">
                                    <img src=""images/D11.png"" style= ""width:200px""alt=""img"">
                                </div>
                            </div>","-38","","0","images/D11.png","","","","[""Hard"",""Soft""]"
"","","","","","html-slider-response","74","211803","0.0-60.0","1vgtyyhhsd","NaN","<div style=""width:500px;"">
                                <p style=""font-size:50px; font-weight:bold;""
                                ></p>
                                <div style=""width:240px; margin: auto;"">
                                    <img src=""images/D56.png"" style= ""width:200px""alt=""img"">
                                </div>
                            </div>","-74","","0","images/D56.png","","","","[""Hard"",""Soft""]"
"","","","","","html-slider-response","75","212952","0.0-61.0","1vgtyyhhsd","NaN","<div style=""width:500px;"">
                                <p style=""font-size:50px; font-weight:bold;""
                                ></p>
                                <div style=""width:240px; margin: auto;"">
                                    <img src=""images/D80.png"" style= ""width:200px""alt=""img"">
                                </div>
                            </div>","50","","0","images/D80.png","","","","[""Hard"",""Soft""]"
"","","","","","html-slider-response","76","213719","0.0-62.0","1vgtyyhhsd","NaN","<div style=""width:500px;"">
                                <p style=""font-size:50px; font-weight:bold;""
                                ></p>
                                <div style=""width:240px; margin: auto;"">
                                    <img src=""images/D14.png"" style= ""width:200px""alt=""img"">
                                </div>
                            </div>","-93","","0","images/D14.png","","","","[""Hard"",""Soft""]"
"","","","","","html-slider-response","77","220319","0.0-63.0","1vgtyyhhsd","NaN","<div style=""width:500px;"">
                                <p style=""font-size:50px; font-weight:bold;""
                                ></p>
                                <div style=""width:240px; margin: auto;"">
                                    <img src=""images/D77.png"" style= ""width:200px""alt=""img"">
                                </div>
                            </div>","43","","0","images/D77.png","","","","[""Hard"",""Soft""]"
"","","","","","html-slider-response","78","221819","0.0-64.0","1vgtyyhhsd","NaN","<div style=""width:500px;"">
                                <p style=""font-size:50px; font-weight:bold;""
                                ></p>
                                <div style=""width:240px; margin: auto;"">
                                    <img src=""images/D6.png"" style= ""width:200px""alt=""img"">
                                </div>
                            </div>","44","","0","images/D6.png","","","","[""Hard"",""Soft""]"
"","","","","","html-slider-response","79","222885","0.0-65.0","1vgtyyhhsd","NaN","<div style=""width:500px;"">
                                <p style=""font-size:50px; font-weight:bold;""
                                ></p>
                                <div style=""width:240px; margin: auto;"">
                                    <img src=""images/D32.png"" style= ""width:200px""alt=""img"">
                                </div>
                            </div>","-92","","0","images/D32.png","","","","[""Hard"",""Soft""]"
"","","","","","html-slider-response","80","224135","0.0-66.0","1vgtyyhhsd","NaN","<div style=""width:500px;"">
                                <p style=""font-size:50px; font-weight:bold;""
                                ></p>
                                <div style=""width:240px; margin: auto;"">
                                    <img src=""images/D105.png"" style= ""width:200px""alt=""img"">
                                </div>
                            </div>","-46","","0","images/D105.png","","","","[""Hard"",""Soft""]"
"","","","","","html-slider-response","81","225102","0.0-67.0","1vgtyyhhsd","NaN","<div style=""width:500px;"">
                                <p style=""font-size:50px; font-weight:bold;""
                                ></p>
                                <div style=""width:240px; margin: auto;"">
                                    <img src=""images/D47.png"" style= ""width:200px""alt=""img"">
                                </div>
                            </div>","51","","0","images/D47.png","","","","[""Hard"",""Soft""]"
"","","","","","html-slider-response","82","226069","0.0-68.0","1vgtyyhhsd","NaN","<div style=""width:500px;"">
                                <p style=""font-size:50px; font-weight:bold;""
                                ></p>
                                <div style=""width:240px; margin: auto;"">
                                    <img src=""images/D26.png"" style= ""width:200px""alt=""img"">
                                </div>
                            </div>","-83","","0","images/D26.png","","","","[""Hard"",""Soft""]"
"","","","","","html-slider-response","83","227436","0.0-69.0","1vgtyyhhsd","NaN","<div style=""width:500px;"">
                                <p style=""font-size:50px; font-weight:bold;""
                                ></p>
                                <div style=""width:240px; margin: auto;"">
                                    <img src=""images/D48.png"" style= ""width:200px""alt=""img"">
                                </div>
                            </div>","48","","0","images/D48.png","","","","[""Hard"",""Soft""]"
"","","","","","html-slider-response","84","228502","0.0-70.0","1vgtyyhhsd","NaN","<div style=""width:500px;"">
                                <p style=""font-size:50px; font-weight:bold;""
                                ></p>
                                <div style=""width:240px; margin: auto;"">
                                    <img src=""images/D49.png"" style= ""width:200px""alt=""img"">
                                </div>
                            </div>","-59","","0","images/D49.png","","","","[""Hard"",""Soft""]"
"","","","","","html-slider-response","85","229502","0.0-71.0","1vgtyyhhsd","NaN","<div style=""width:500px;"">
                                <p style=""font-size:50px; font-weight:bold;""
                                ></p>
                                <div style=""width:240px; margin: auto;"">
                                    <img src=""images/D36.png"" style= ""width:200px""alt=""img"">
                                </div>
                            </div>","-64","","0","images/D36.png","","","","[""Hard"",""Soft""]"
"","","","","","html-slider-response","86","230502","0.0-72.0","1vgtyyhhsd","NaN","<div style=""width:500px;"">
                                <p style=""font-size:50px; font-weight:bold;""
                                ></p>
                                <div style=""width:240px; margin: auto;"">
                                    <img src=""images/D46.png"" style= ""width:200px""alt=""img"">
                                </div>
                            </div>","-78","","0","images/D46.png","","","","[""Hard"",""Soft""]"
"","","","","","html-slider-response","87","231885","0.0-73.0","1vgtyyhhsd","NaN","<div style=""width:500px;"">
                                <p style=""font-size:50px; font-weight:bold;""
                                ></p>
                                <div style=""width:240px; margin: auto;"">
                                    <img src=""images/D20.png"" style= ""width:200px""alt=""img"">
                                </div>
                            </div>","-79","","0","images/D20.png","","","","[""Hard"",""Soft""]"
"","","","","","html-slider-response","88","233403","0.0-74.0","1vgtyyhhsd","NaN","<div style=""width:500px;"">
                                <p style=""font-size:50px; font-weight:bold;""
                                ></p>
                                <div style=""width:240px; margin: auto;"">
                                    <img src=""images/D96.png"" style= ""width:200px""alt=""img"">
                                </div>
                            </div>","-193","","0","images/D96.png","","","","[""Hard"",""Soft""]"
"","","","","","html-slider-response","89","235002","0.0-75.0","1vgtyyhhsd","NaN","<div style=""width:500px;"">
                                <p style=""font-size:50px; font-weight:bold;""
                                ></p>
                                <div style=""width:240px; margin: auto;"">
                                    <img src=""images/D29.png"" style= ""width:200px""alt=""img"">
                                </div>
                            </div>","-193","","0","images/D29.png","","","","[""Hard"",""Soft""]"
"","","","","","html-button-response","90","237843","0.0-76.0","1vgtyyhhsd","2339","You have completed the first block of trials out of six. Please click 'Continue' when you are ready proceed.","0","","","","","","",""
"","","","","","html-button-response","91","238559","0.0-77.0","1vgtyyhhsd","716","In the following trials, you will be asked to rate textures on the scale <b>Rough</b> versus <b>Smooth</b>. Please click 'Continue' when you are ready proceed.","0","","","","","","",""
"","","","","","html-slider-response","92","239953","0.0-78.0","1vgtyyhhsd","NaN","<div style=""width:500px;"">
                                <p style=""font-size:50px; font-weight:bold;""
                                ></p>
                                <div style=""width:240px; margin: auto;"">
                                    <img src=""images/D24.png"" style= ""width:200px""alt=""img"">
                                </div>
                            </div>","-118","","0","images/D24.png","","","","[""Rough"",""Smooth""]"
"","","","","","html-slider-response","93","241319","0.0-79.0","1vgtyyhhsd","NaN","<div style=""width:500px;"">
                                <p style=""font-size:50px; font-weight:bold;""
                                ></p>
                                <div style=""width:240px; margin: auto;"">
                                    <img src=""images/D104.png"" style= ""width:200px""alt=""img"">
                                </div>
                            </div>","54","","0","images/D104.png","","","","[""Rough"",""Smooth""]"
"","","","","","html-slider-response","94","242369","0.0-80.0","1vgtyyhhsd","NaN","<div style=""width:500px;"">
                                <p style=""font-size:50px; font-weight:bold;""
                                ></p>
                                <div style=""width:240px; margin: auto;"">
                                    <img src=""images/D21.png"" style= ""width:200px""alt=""img"">
                                </div>
                            </div>","-122","","0","images/D21.png","","","","[""Rough"",""Smooth""]"
"","","","","","html-slider-response","95","243569","0.0-81.0","1vgtyyhhsd","NaN","<div style=""width:500px;"">
                                <p style=""font-size:50px; font-weight:bold;""
                                ></p>
                                <div style=""width:240px; margin: auto;"">
                                    <img src=""images/D83.png"" style= ""width:200px""alt=""img"">
                                </div>
                            </div>","54","","0","images/D83.png","","","","[""Rough"",""Smooth""]"
"","","","","","html-slider-response","96","244769","0.0-82.0","1vgtyyhhsd","NaN","<div style=""width:500px;"">
                                <p style=""font-size:50px; font-weight:bold;""
                                ></p>
                                <div style=""width:240px; margin: auto;"">
                                    <img src=""images/D81.png"" style= ""width:200px""alt=""img"">
                                </div>
                            </div>","-88","","0","images/D81.png","","","","[""Rough"",""Smooth""]"
"","","","","","html-slider-response","97","246003","0.0-83.0","1vgtyyhhsd","NaN","<div style=""width:500px;"">
                                <p style=""font-size:50px; font-weight:bold;""
                                ></p>
                                <div style=""width:240px; margin: auto;"">
                                    <img src=""images/D82.png"" style= ""width:200px""alt=""img"">
                                </div>
                            </div>","82","","0","images/D82.png","","","","[""Rough"",""Smooth""]"
"","","","","","html-slider-response","98","247069","0.0-84.0","1vgtyyhhsd","NaN","<div style=""width:500px;"">
                                <p style=""font-size:50px; font-weight:bold;""
                                ></p>
                                <div style=""width:240px; margin: auto;"">
                                    <img src=""images/D74.png"" style= ""width:200px""alt=""img"">
                                </div>
                            </div>","-103","","0","images/D74.png","","","","[""Rough"",""Smooth""]"
"","","","","","html-slider-response","99","248485","0.0-85.0","1vgtyyhhsd","NaN","<div style=""width:500px;"">
                                <p style=""font-size:50px; font-weight:bold;""
                                ></p>
                                <div style=""width:240px; margin: auto;"">
                                    <img src=""images/D4.png"" style= ""width:200px""alt=""img"">
                                </div>
                            </div>","58","","0","images/D4.png","","","","[""Rough"",""Smooth""]"
"","","","","","html-slider-response","100","249886","0.0-86.0","1vgtyyhhsd","NaN","<div style=""width:500px;"">
                                <p style=""font-size:50px; font-weight:bold;""
                                ></p>
                                <div style=""width:240px; margin: auto;"">
                                    <img src=""images/D8.png"" style= ""width:200px""alt=""img"">
                                </div>
                            </div>","-74","","0","images/D8.png","","","","[""Rough"",""Smooth""]"
"","","","","","html-slider-response","101","250969","0.0-87.0","1vgtyyhhsd","NaN","<div style=""width:500px;"">
                                <p style=""font-size:50px; font-weight:bold;""
                                ></p>
                                <div style=""width:240px; margin: auto;"">
                                    <img src=""images/D87.png"" style= ""width:200px""alt=""img"">
                                </div>
                            </div>","44","","0","images/D87.png","","","","[""Rough"",""Smooth""]"
"","","","","","html-slider-response","102","251969","0.0-88.0","1vgtyyhhsd","NaN","<div style=""width:500px;"">
                                <p style=""font-size:50px; font-weight:bold;""
                                ></p>
                                <div style=""width:240px; margin: auto;"">
                                    <img src=""images/D16.png"" style= ""width:200px""alt=""img"">
                                </div>
                            </div>","-104","","0","images/D16.png","","","","[""Rough"",""Smooth""]"
"","","","","","html-slider-response","103","259735","0.0-89.0","1vgtyyhhsd","NaN","<div style=""width:500px;"">
                                <p style=""font-size:50px; font-weight:bold;""
                                ></p>
                                <div style=""width:240px; margin: auto;"">
                                    <img src=""images/D84.png"" style= ""width:200px""alt=""img"">
                                </div>
                            </div>","90","","0","images/D84.png","","","","[""Rough"",""Smooth""]"
"","","","","","html-slider-response","104","260769","0.0-90.0","1vgtyyhhsd","NaN","<div style=""width:500px;"">
                                <p style=""font-size:50px; font-weight:bold;""
                                ></p>
                                <div style=""width:240px; margin: auto;"">
                                    <img src=""images/D106.png"" style= ""width:200px""alt=""img"">
                                </div>
                            </div>","-91","","0","images/D106.png","","","","[""Rough"",""Smooth""]"
"","","","","","html-slider-response","105","261936","0.0-91.0","1vgtyyhhsd","NaN","<div style=""width:500px;"">
                                <p style=""font-size:50px; font-weight:bold;""
                                ></p>
                                <div style=""width:240px; margin: auto;"">
                                    <img src=""images/D19.png"" style= ""width:200px""alt=""img"">
                                </div>
                            </div>","-96","","0","images/D19.png","","","","[""Rough"",""Smooth""]"
"","","","","","html-slider-response","106","263469","0.0-92.0","1vgtyyhhsd","NaN","<div style=""width:500px;"">
                                <p style=""font-size:50px; font-weight:bold;""
                                ></p>
                                <div style=""width:240px; margin: auto;"">
                                    <img src=""images/D76.png"" style= ""width:200px""alt=""img"">
                                </div>
                            </div>","58","","0","images/D76.png","","","","[""Rough"",""Smooth""]"
"","","","","","html-slider-response","107","264469","0.0-93.0","1vgtyyhhsd","NaN","<div style=""width:500px;"">
                                <p style=""font-size:50px; font-weight:bold;""
                                ></p>
                                <div style=""width:240px; margin: auto;"">
                                    <img src=""images/D53.png"" style= ""width:200px""alt=""img"">
                                </div>
                            </div>","-114","","0","images/D53.png","","","","[""Rough"",""Smooth""]"
"","","","","","html-slider-response","108","265718","0.0-94.0","1vgtyyhhsd","NaN","<div style=""width:500px;"">
                                <p style=""font-size:50px; font-weight:bold;""
                                ></p>
                                <div style=""width:240px; margin: auto;"">
                                    <img src=""images/D102.png"" style= ""width:200px""alt=""img"">
                                </div>
                            </div>","57","","0","images/D102.png","","","","[""Rough"",""Smooth""]"
"","","","","","html-slider-response","109","266819","0.0-95.0","1vgtyyhhsd","NaN","<div style=""width:500px;"">
                                <p style=""font-size:50px; font-weight:bold;""
                                ></p>
                                <div style=""width:240px; margin: auto;"">
                                    <img src=""images/D34.png"" style= ""width:200px""alt=""img"">
                                </div>
                            </div>","-130","","0","images/D34.png","","","","[""Rough"",""Smooth""]"
"","","","","","html-slider-response","110","267836","0.0-96.0","1vgtyyhhsd","NaN","<div style=""width:500px;"">
                                <p style=""font-size:50px; font-weight:bold;""
                                ></p>
                                <div style=""width:240px; margin: auto;"">
                                    <img src=""images/D68.png"" style= ""width:200px""alt=""img"">
                                </div>
                            </div>","78","","0","images/D68.png","","","","[""Rough"",""Smooth""]"
"","","","","","html-slider-response","111","269052","0.0-97.0","1vgtyyhhsd","NaN","<div style=""width:500px;"">
                                <p style=""font-size:50px; font-weight:bold;""
                                ></p>
                                <div style=""width:240px; margin: auto;"">
                                    <img src=""images/D64.png"" style= ""width:200px""alt=""img"">
                                </div>
                            </div>","-138","","0","images/D64.png","","","","[""Rough"",""Smooth""]"
"","","","","","html-slider-response","112","270219","0.0-98.0","1vgtyyhhsd","NaN","<div style=""width:500px;"">
                                <p style=""font-size:50px; font-weight:bold;""
                                ></p>
                                <div style=""width:240px; margin: auto;"">
                                    <img src=""images/D9.png"" style= ""width:200px""alt=""img"">
                                </div>
                            </div>","-93","","0","images/D9.png","","","","[""Rough"",""Smooth""]"
"","","","","","html-slider-response","113","271302","0.0-99.0","1vgtyyhhsd","NaN","<div style=""width:500px;"">
                                <p style=""font-size:50px; font-weight:bold;""
                                ></p>
                                <div style=""width:240px; margin: auto;"">
                                    <img src=""images/D79.png"" style= ""width:200px""alt=""img"">
                                </div>
                            </div>","-110","","0","images/D79.png","","","","[""Rough"",""Smooth""]"
"","","","","","html-slider-response","114","272469","0.0-100.0","1vgtyyhhsd","NaN","<div style=""width:500px;"">
                                <p style=""font-size:50px; font-weight:bold;""
                                ></p>
                                <div style=""width:240px; margin: auto;"">
                                    <img src=""images/D35.png"" style= ""width:200px""alt=""img"">
                                </div>
                            </div>","-109","","0","images/D35.png","","","","[""Rough"",""Smooth""]"
"","","","","","html-slider-response","115","273553","0.0-101.0","1vgtyyhhsd","NaN","<div style=""width:500px;"">
                                <p style=""font-size:50px; font-weight:bold;""
                                ></p>
                                <div style=""width:240px; margin: auto;"">
                                    <img src=""images/D51.png"" style= ""width:200px""alt=""img"">
                                </div>
                            </div>","-126","","0","images/D51.png","","","","[""Rough"",""Smooth""]"
"","","","","","html-slider-response","116","274686","0.0-102.0","1vgtyyhhsd","NaN","<div style=""width:500px;"">
                                <p style=""font-size:50px; font-weight:bold;""
                                ></p>
                                <div style=""width:240px; margin: auto;"">
                                    <img src=""images/D78.png"" style= ""width:200px""alt=""img"">
                                </div>
                            </div>","-102","","0","images/D78.png","","","","[""Rough"",""Smooth""]"
"","","","","","html-slider-response","117","275936","0.0-103.0","1vgtyyhhsd","NaN","<div style=""width:500px;"">
                                <p style=""font-size:50px; font-weight:bold;""
                                ></p>
                                <div style=""width:240px; margin: auto;"">
                                    <img src=""images/D85.png"" style= ""width:200px""alt=""img"">
                                </div>
                            </div>","-104","","0","images/D85.png","","","","[""Rough"",""Smooth""]"
"","","","","","html-slider-response","118","277202","0.0-104.0","1vgtyyhhsd","NaN","<div style=""width:500px;"">
                                <p style=""font-size:50px; font-weight:bold;""
                                ></p>
                                <div style=""width:240px; margin: auto;"">
                                    <img src=""images/D75.png"" style= ""width:200px""alt=""img"">
                                </div>
                            </div>","-127","","0","images/D75.png","","","","[""Rough"",""Smooth""]"
"","","","","","html-slider-response","119","278321","0.0-105.0","1vgtyyhhsd","NaN","<div style=""width:500px;"">
                                <p style=""font-size:50px; font-weight:bold;""
                                ></p>
                                <div style=""width:240px; margin: auto;"">
                                    <img src=""images/D17.png"" style= ""width:200px""alt=""img"">
                                </div>
                            </div>","-115","","0","images/D17.png","","","","[""Rough"",""Smooth""]"
"","","","","","html-slider-response","120","279519","0.0-106.0","1vgtyyhhsd","NaN","<div style=""width:500px;"">
                                <p style=""font-size:50px; font-weight:bold;""
                                ></p>
                                <div style=""width:240px; margin: auto;"">
                                    <img src=""images/D52.png"" style= ""width:200px""alt=""img"">
                                </div>
                            </div>","-119","","0","images/D52.png","","","","[""Rough"",""Smooth""]"
"","","","","","html-slider-response","121","280419","0.0-107.0","1vgtyyhhsd","NaN","<div style=""width:500px;"">
                                <p style=""font-size:50px; font-weight:bold;""
                                ></p>
                                <div style=""width:240px; margin: auto;"">
                                    <img src=""images/D55.png"" style= ""width:200px""alt=""img"">
                                </div>
                            </div>","-118","","0","images/D55.png","","","","[""Rough"",""Smooth""]"
"","","","","","html-slider-response","122","281335","0.0-108.0","1vgtyyhhsd","NaN","<div style=""width:500px;"">
                                <p style=""font-size:50px; font-weight:bold;""
                                ></p>
                                <div style=""width:240px; margin: auto;"">
                                    <img src=""images/D37.png"" style= ""width:200px""alt=""img"">
                                </div>
                            </div>","-122","","0","images/D37.png","","","","[""Rough"",""Smooth""]"
"","","","","","html-slider-response","123","281985","0.0-109.0","1vgtyyhhsd","NaN","<div style=""width:500px;"">
                                <p style=""font-size:50px; font-weight:bold;""
                                ></p>
                                <div style=""width:240px; margin: auto;"">
                                    <img src=""images/D22.png"" style= ""width:200px""alt=""img"">
                                </div>
                            </div>","-138","","0","images/D22.png","","","","[""Rough"",""Smooth""]"
"","","","","","html-slider-response","124","283219","0.0-110.0","1vgtyyhhsd","NaN","<div style=""width:500px;"">
                                <p style=""font-size:50px; font-weight:bold;""
                                ></p>
                                <div style=""width:240px; margin: auto;"">
                                    <img src=""images/D18.png"" style= ""width:200px""alt=""img"">
                                </div>
                            </div>","-162","","0","images/D18.png","","","","[""Rough"",""Smooth""]"
"","","","","","html-slider-response","125","284685","0.0-111.0","1vgtyyhhsd","NaN","<div style=""width:500px;"">
                                <p style=""font-size:50px; font-weight:bold;""
                                ></p>
                                <div style=""width:240px; margin: auto;"">
                                    <img src=""images/D101.png"" style= ""width:200px""alt=""img"">
                                </div>
                            </div>","87","","0","images/D101.png","","","","[""Rough"",""Smooth""]"
"","","","","","html-slider-response","126","285702","0.0-112.0","1vgtyyhhsd","NaN","<div style=""width:500px;"">
                                <p style=""font-size:50px; font-weight:bold;""
                                ></p>
                                <div style=""width:240px; margin: auto;"">
                                    <img src=""images/D103.png"" style= ""width:200px""alt=""img"">
                                </div>
                            </div>","-104","","0","images/D103.png","","","","[""Rough"",""Smooth""]"
"","","","","","html-slider-response","127","286919","0.0-113.0","1vgtyyhhsd","NaN","<div style=""width:500px;"">
                                <p style=""font-size:50px; font-weight:bold;""
                                ></p>
                                <div style=""width:240px; margin: auto;"">
                                    <img src=""images/D25.png"" style= ""width:200px""alt=""img"">
                                </div>
                            </div>","-159","","0","images/D25.png","","","","[""Rough"",""Smooth""]"
"","","","","","html-slider-response","128","288702","0.0-114.0","1vgtyyhhsd","NaN","<div style=""width:500px;"">
                                <p style=""font-size:50px; font-weight:bold;""
                                ></p>
                                <div style=""width:240px; margin: auto;"">
                                    <img src=""images/D3.png"" style= ""width:200px""alt=""img"">
                                </div>
                            </div>","-189","","0","images/D3.png","","","","[""Rough"",""Smooth""]"
"","","","","","html-slider-response","129","290002","0.0-115.0","1vgtyyhhsd","NaN","<div style=""width:500px;"">
                                <p style=""font-size:50px; font-weight:bold;""
                                ></p>
                                <div style=""width:240px; margin: auto;"">
                                    <img src=""images/D92.png"" style= ""width:200px""alt=""img"">
                                </div>
                            </div>","-111","","0","images/D92.png","","","","[""Rough"",""Smooth""]"
"","","","","","html-slider-response","130","291035","0.0-116.0","1vgtyyhhsd","NaN","<div style=""width:500px;"">
                                <p style=""font-size:50px; font-weight:bold;""
                                ></p>
                                <div style=""width:240px; margin: auto;"">
                                    <img src=""images/D94.png"" style= ""width:200px""alt=""img"">
                                </div>
                            </div>","54","","0","images/D94.png","","","","[""Rough"",""Smooth""]"
"","","","","","html-slider-response","131","292268","0.0-117.0","1vgtyyhhsd","NaN","<div style=""width:500px;"">
                                <p style=""font-size:50px; font-weight:bold;""
                                ></p>
                                <div style=""width:240px; margin: auto;"">
                                    <img src=""images/D66.png"" style= ""width:200px""alt=""img"">
                                </div>
                            </div>","-125","","0","images/D66.png","","","","[""Rough"",""Smooth""]"
"","","","","","html-slider-response","132","294102","0.0-118.0","1vgtyyhhsd","NaN","<div style=""width:500px;"">
                                <p style=""font-size:50px; font-weight:bold;""
                                ></p>
                                <div style=""width:240px; margin: auto;"">
                                    <img src=""images/D65.png"" style= ""width:200px""alt=""img"">
                                </div>
                            </div>","-160","","0","images/D65.png","","","","[""Rough"",""Smooth""]"
"","","","","","html-slider-response","133","295702","0.0-119.0","1vgtyyhhsd","NaN","<div style=""width:500px;"">
                                <p style=""font-size:50px; font-weight:bold;""
                                ></p>
                                <div style=""width:240px; margin: auto;"">
                                    <img src=""images/D1.png"" style= ""width:200px""alt=""img"">
                                </div>
                            </div>","-163","","0","images/D1.png","","","","[""Rough"",""Smooth""]"
"","","","","","html-slider-response","134","297002","0.0-120.0","1vgtyyhhsd","NaN","<div style=""width:500px;"">
                                <p style=""font-size:50px; font-weight:bold;""
                                ></p>
                                <div style=""width:240px; margin: auto;"">
                                    <img src=""images/D57.png"" style= ""width:200px""alt=""img"">
                                </div>
                            </div>","-157","","0","images/D57.png","","","","[""Rough"",""Smooth""]"
"","","","","","html-slider-response","135","299119","0.0-121.0","1vgtyyhhsd","NaN","<div style=""width:500px;"">
                                <p style=""font-size:50px; font-weight:bold;""
                                ></p>
                                <div style=""width:240px; margin: auto;"">
                                    <img src=""images/D95.png"" style= ""width:200px""alt=""img"">
                                </div>
                            </div>","-157","","0","images/D95.png","","","","[""Rough"",""Smooth""]"
"","","","","","html-slider-response","136","300236","0.0-122.0","1vgtyyhhsd","NaN","<div style=""width:500px;"">
                                <p style=""font-size:50px; font-weight:bold;""
                                ></p>
                                <div style=""width:240px; margin: auto;"">
                                    <img src=""images/D111.png"" style= ""width:200px""alt=""img"">
                                </div>
                            </div>","-162","","0","images/D111.png","","","","[""Rough"",""Smooth""]"
"","","","","","html-slider-response","137","301385","0.0-123.0","1vgtyyhhsd","NaN","<div style=""width:500px;"">
                                <p style=""font-size:50px; font-weight:bold;""
                                ></p>
                                <div style=""width:240px; margin: auto;"">
                                    <img src=""images/D11.png"" style= ""width:200px""alt=""img"">
                                </div>
                            </div>","-134","","0","images/D11.png","","","","[""Rough"",""Smooth""]"
"","","","","","html-slider-response","138","302502","0.0-124.0","1vgtyyhhsd","NaN","<div style=""width:500px;"">
                                <p style=""font-size:50px; font-weight:bold;""
                                ></p>
                                <div style=""width:240px; margin: auto;"">
                                    <img src=""images/D56.png"" style= ""width:200px""alt=""img"">
                                </div>
                            </div>","-133","","0","images/D56.png","","","","[""Rough"",""Smooth""]"
"","","","","","html-slider-response","139","303602","0.0-125.0","1vgtyyhhsd","NaN","<div style=""width:500px;"">
                                <p style=""font-size:50px; font-weight:bold;""
                                ></p>
                                <div style=""width:240px; margin: auto;"">
                                    <img src=""images/D80.png"" style= ""width:200px""alt=""img"">
                                </div>
                            </div>","-157","","0","images/D80.png","","","","[""Rough"",""Smooth""]"
"","","","","","html-slider-response","140","304702","0.0-126.0","1vgtyyhhsd","NaN","<div style=""width:500px;"">
                                <p style=""font-size:50px; font-weight:bold;""
                                ></p>
                                <div style=""width:240px; margin: auto;"">
                                    <img src=""images/D14.png"" style= ""width:200px""alt=""img"">
                                </div>
                            </div>","-166","","0","images/D14.png","","","","[""Rough"",""Smooth""]"
"","","","","","html-slider-response","141","305918","0.0-127.0","1vgtyyhhsd","NaN","<div style=""width:500px;"">
                                <p style=""font-size:50px; font-weight:bold;""
                                ></p>
                                <div style=""width:240px; margin: auto;"">
                                    <img src=""images/D77.png"" style= ""width:200px""alt=""img"">
                                </div>
                            </div>","-167","","0","images/D77.png","","","","[""Rough"",""Smooth""]"
"","","","","","html-slider-response","142","307102","0.0-128.0","1vgtyyhhsd","NaN","<div style=""width:500px;"">
                                <p style=""font-size:50px; font-weight:bold;""
                                ></p>
                                <div style=""width:240px; margin: auto;"">
                                    <img src=""images/D6.png"" style= ""width:200px""alt=""img"">
                                </div>
                            </div>","110","","0","images/D6.png","","","","[""Rough"",""Smooth""]"
"","","","","","html-slider-response","143","307968","0.0-129.0","1vgtyyhhsd","NaN","<div style=""width:500px;"">
                                <p style=""font-size:50px; font-weight:bold;""
                                ></p>
                                <div style=""width:240px; margin: auto;"">
                                    <img src=""images/D32.png"" style= ""width:200px""alt=""img"">
                                </div>
                            </div>","-117","","0","images/D32.png","","","","[""Rough"",""Smooth""]"
"","","","","","html-slider-response","144","309902","0.0-130.0","1vgtyyhhsd","NaN","<div style=""width:500px;"">
                                <p style=""font-size:50px; font-weight:bold;""
                                ></p>
                                <div style=""width:240px; margin: auto;"">
                                    <img src=""images/D105.png"" style= ""width:200px""alt=""img"">
                                </div>
                            </div>","59","","0","images/D105.png","","","","[""Rough"",""Smooth""]"
"","","","","","html-slider-response","145","310618","0.0-131.0","1vgtyyhhsd","NaN","<div style=""width:500px;"">
                                <p style=""font-size:50px; font-weight:bold;""
                                ></p>
                                <div style=""width:240px; margin: auto;"">
                                    <img src=""images/D47.png"" style= ""width:200px""alt=""img"">
                                </div>
                            </div>","-73","","0","images/D47.png","","","","[""Rough"",""Smooth""]"
"","","","","","html-slider-response","146","311286","0.0-132.0","1vgtyyhhsd","NaN","<div style=""width:500px;"">
                                <p style=""font-size:50px; font-weight:bold;""
                                ></p>
                                <div style=""width:240px; margin: auto;"">
                                    <img src=""images/D26.png"" style= ""width:200px""alt=""img"">
                                </div>
                            </div>","42","","0","images/D26.png","","","","[""Rough"",""Smooth""]"
"","","","","","html-slider-response","147","311968","0.0-133.0","1vgtyyhhsd","NaN","<div style=""width:500px;"">
                                <p style=""font-size:50px; font-weight:bold;""
                                ></p>
                                <div style=""width:240px; margin: auto;"">
                                    <img src=""images/D48.png"" style= ""width:200px""alt=""img"">
                                </div>
                            </div>","-167","","0","images/D48.png","","","","[""Rough"",""Smooth""]"
"","","","","","html-slider-response","148","312702","0.0-134.0","1vgtyyhhsd","NaN","<div style=""width:500px;"">
                                <p style=""font-size:50px; font-weight:bold;""
                                ></p>
                                <div style=""width:240px; margin: auto;"">
                                    <img src=""images/D49.png"" style= ""width:200px""alt=""img"">
                                </div>
                            </div>","82","","0","images/D49.png","","","","[""Rough"",""Smooth""]"
"","","","","","html-slider-response","149","313702","0.0-135.0","1vgtyyhhsd","NaN","<div style=""width:500px;"">
                                <p style=""font-size:50px; font-weight:bold;""
                                ></p>
                                <div style=""width:240px; margin: auto;"">
                                    <img src=""images/D36.png"" style= ""width:200px""alt=""img"">
                                </div>
                            </div>","-179","","0","images/D36.png","","","","[""Rough"",""Smooth""]"
"","","","","","html-slider-response","150","314602","0.0-136.0","1vgtyyhhsd","NaN","<div style=""width:500px;"">
                                <p style=""font-size:50px; font-weight:bold;""
                                ></p>
                                <div style=""width:240px; margin: auto;"">
                                    <img src=""images/D46.png"" style= ""width:200px""alt=""img"">
                                </div>
                            </div>","118","","0","images/D46.png","","","","[""Rough"",""Smooth""]"
"","","","","","html-slider-response","151","315353","0.0-137.0","1vgtyyhhsd","NaN","<div style=""width:500px;"">
                                <p style=""font-size:50px; font-weight:bold;""
                                ></p>
                                <div style=""width:240px; margin: auto;"">
                                    <img src=""images/D20.png"" style= ""width:200px""alt=""img"">
                                </div>
                            </div>","-129","","0","images/D20.png","","","","[""Rough"",""Smooth""]"
"","","","","","html-slider-response","152","316118","0.0-138.0","1vgtyyhhsd","NaN","<div style=""width:500px;"">
                                <p style=""font-size:50px; font-weight:bold;""
                                ></p>
                                <div style=""width:240px; margin: auto;"">
                                    <img src=""images/D96.png"" style= ""width:200px""alt=""img"">
                                </div>
                            </div>","77","","0","images/D96.png","","","","[""Rough"",""Smooth""]"
"","","","","","html-slider-response","153","317268","0.0-139.0","1vgtyyhhsd","NaN","<div style=""width:500px;"">
                                <p style=""font-size:50px; font-weight:bold;""
                                ></p>
                                <div style=""width:240px; margin: auto;"">
                                    <img src=""images/D29.png"" style= ""width:200px""alt=""img"">
                                </div>
                            </div>","37","","0","images/D29.png","","","","[""Rough"",""Smooth""]"
"","","","","","html-button-response","154","318774","0.0-140.0","1vgtyyhhsd","1003","You have completed the second block of trials out of six. Please click 'Continue' when you are ready proceed.","0","","","","","","",""
"","","","","","html-button-response","155","319542","0.0-141.0","1vgtyyhhsd","767","In the following trials, you will be asked to rate textures on the scale <b>Blobby</b> versus <b>Stripey</b>. Please click 'Continue' when you are ready proceed.","0","","","","","","",""
"","","","","","html-slider-response","156","321368","0.0-142.0","1vgtyyhhsd","NaN","<div style=""width:500px;"">
                                <p style=""font-size:50px; font-weight:bold;""
                                ></p>
                                <div style=""width:240px; margin: auto;"">
                                    <img src=""images/D14.png"" style= ""width:200px""alt=""img"">
                                </div>
                            </div>","114","","0","images/D14.png","","","","[""Blobby"",""Stripey""]"
"","","","","","html-slider-response","157","322535","0.0-143.0","1vgtyyhhsd","NaN","<div style=""width:500px;"">
                                <p style=""font-size:50px; font-weight:bold;""
                                ></p>
                                <div style=""width:240px; margin: auto;"">
                                    <img src=""images/D87.png"" style= ""width:200px""alt=""img"">
                                </div>
                            </div>","-82","","0","images/D87.png","","","","[""Blobby"",""Stripey""]"
"","","","","","html-slider-response","158","323902","0.0-144.0","1vgtyyhhsd","NaN","<div style=""width:500px;"">
                                <p style=""font-size:50px; font-weight:bold;""
                                ></p>
                                <div style=""width:240px; margin: auto;"">
                                    <img src=""images/D82.png"" style= ""width:200px""alt=""img"">
                                </div>
                            </div>","-71","","0","images/D82.png","","","","[""Blobby"",""Stripey""]"
"","","","","","html-slider-response","159","325052","0.0-145.0","1vgtyyhhsd","NaN","<div style=""width:500px;"">
                                <p style=""font-size:50px; font-weight:bold;""
                                ></p>
                                <div style=""width:240px; margin: auto;"">
                                    <img src=""images/D83.png"" style= ""width:200px""alt=""img"">
                                </div>
                            </div>","124","","0","images/D83.png","","","","[""Blobby"",""Stripey""]"
"","","","","","html-slider-response","160","326335","0.0-146.0","1vgtyyhhsd","NaN","<div style=""width:500px;"">
                                <p style=""font-size:50px; font-weight:bold;""
                                ></p>
                                <div style=""width:240px; margin: auto;"">
                                    <img src=""images/D35.png"" style= ""width:200px""alt=""img"">
                                </div>
                            </div>","132","","0","images/D35.png","","","","[""Blobby"",""Stripey""]"
"","","","","","html-slider-response","161","327618","0.0-147.0","1vgtyyhhsd","NaN","<div style=""width:500px;"">
                                <p style=""font-size:50px; font-weight:bold;""
                                ></p>
                                <div style=""width:240px; margin: auto;"">
                                    <img src=""images/D106.png"" style= ""width:200px""alt=""img"">
                                </div>
                            </div>","157","","0","images/D106.png","","","","[""Blobby"",""Stripey""]"
"","","","","","html-slider-response","162","328852","0.0-148.0","1vgtyyhhsd","NaN","<div style=""width:500px;"">
                                <p style=""font-size:50px; font-weight:bold;""
                                ></p>
                                <div style=""width:240px; margin: auto;"">
                                    <img src=""images/D47.png"" style= ""width:200px""alt=""img"">
                                </div>
                            </div>","-152","","0","images/D47.png","","","","[""Blobby"",""Stripey""]"
"","","","","","html-slider-response","163","329935","0.0-149.0","1vgtyyhhsd","NaN","<div style=""width:500px;"">
                                <p style=""font-size:50px; font-weight:bold;""
                                ></p>
                                <div style=""width:240px; margin: auto;"">
                                    <img src=""images/D77.png"" style= ""width:200px""alt=""img"">
                                </div>
                            </div>","154","","0","images/D77.png","","","","[""Blobby"",""Stripey""]"
"","","","","","html-slider-response","164","331518","0.0-150.0","1vgtyyhhsd","NaN","<div style=""width:500px;"">
                                <p style=""font-size:50px; font-weight:bold;""
                                ></p>
                                <div style=""width:240px; margin: auto;"">
                                    <img src=""images/D79.png"" style= ""width:200px""alt=""img"">
                                </div>
                            </div>","157","","0","images/D79.png","","","","[""Blobby"",""Stripey""]"
"","","","","","html-slider-response","165","332669","0.0-151.0","1vgtyyhhsd","NaN","<div style=""width:500px;"">
                                <p style=""font-size:50px; font-weight:bold;""
                                ></p>
                                <div style=""width:240px; margin: auto;"">
                                    <img src=""images/D8.png"" style= ""width:200px""alt=""img"">
                                </div>
                            </div>","107","","0","images/D8.png","","","","[""Blobby"",""Stripey""]"
"","","","","","html-slider-response","166","333735","0.0-152.0","1vgtyyhhsd","NaN","<div style=""width:500px;"">
                                <p style=""font-size:50px; font-weight:bold;""
                                ></p>
                                <div style=""width:240px; margin: auto;"">
                                    <img src=""images/D56.png"" style= ""width:200px""alt=""img"">
                                </div>
                            </div>","-127","","0","images/D56.png","","","","[""Blobby"",""Stripey""]"
"","","","","","html-slider-response","167","334869","0.0-153.0","1vgtyyhhsd","NaN","<div style=""width:500px;"">
                                <p style=""font-size:50px; font-weight:bold;""
                                ></p>
                                <div style=""width:240px; margin: auto;"">
                                    <img src=""images/D81.png"" style= ""width:200px""alt=""img"">
                                </div>
                            </div>","131","","0","images/D81.png","","","","[""Blobby"",""Stripey""]"
"","","","","","html-slider-response","168","335936","0.0-154.0","1vgtyyhhsd","NaN","<div style=""width:500px;"">
                                <p style=""font-size:50px; font-weight:bold;""
                                ></p>
                                <div style=""width:240px; margin: auto;"">
                                    <img src=""images/D46.png"" style= ""width:200px""alt=""img"">
                                </div>
                            </div>","-118","","0","images/D46.png","","","","[""Blobby"",""Stripey""]"
"","","","","","html-slider-response","169","336802","0.0-155.0","1vgtyyhhsd","NaN","<div style=""width:500px;"">
                                <p style=""font-size:50px; font-weight:bold;""
                                ></p>
                                <div style=""width:240px; margin: auto;"">
                                    <img src=""images/D55.png"" style= ""width:200px""alt=""img"">
                                </div>
                            </div>","96","","0","images/D55.png","","","","[""Blobby"",""Stripey""]"
"","","","","","html-slider-response","170","337618","0.0-156.0","1vgtyyhhsd","NaN","<div style=""width:500px;"">
                                <p style=""font-size:50px; font-weight:bold;""
                                ></p>
                                <div style=""width:240px; margin: auto;"">
                                    <img src=""images/D32.png"" style= ""width:200px""alt=""img"">
                                </div>
                            </div>","-96","","0","images/D32.png","","","","[""Blobby"",""Stripey""]"
"","","","","","html-slider-response","171","338402","0.0-157.0","1vgtyyhhsd","NaN","<div style=""width:500px;"">
                                <p style=""font-size:50px; font-weight:bold;""
                                ></p>
                                <div style=""width:240px; margin: auto;"">
                                    <img src=""images/D9.png"" style= ""width:200px""alt=""img"">
                                </div>
                            </div>","110","","0","images/D9.png","","","","[""Blobby"",""Stripey""]"
"","","","","","html-slider-response","172","339185","0.0-158.0","1vgtyyhhsd","NaN","<div style=""width:500px;"">
                                <p style=""font-size:50px; font-weight:bold;""
                                ></p>
                                <div style=""width:240px; margin: auto;"">
                                    <img src=""images/D104.png"" style= ""width:200px""alt=""img"">
                                </div>
                            </div>","-82","","0","images/D104.png","","","","[""Blobby"",""Stripey""]"
"","","","","","html-slider-response","173","339985","0.0-159.0","1vgtyyhhsd","NaN","<div style=""width:500px;"">
                                <p style=""font-size:50px; font-weight:bold;""
                                ></p>
                                <div style=""width:240px; margin: auto;"">
                                    <img src=""images/D78.png"" style= ""width:200px""alt=""img"">
                                </div>
                            </div>","76","","0","images/D78.png","","","","[""Blobby"",""Stripey""]"
"","","","","","html-slider-response","174","340668","0.0-160.0","1vgtyyhhsd","NaN","<div style=""width:500px;"">
                                <p style=""font-size:50px; font-weight:bold;""
                                ></p>
                                <div style=""width:240px; margin: auto;"">
                                    <img src=""images/D18.png"" style= ""width:200px""alt=""img"">
                                </div>
                            </div>","-159","","0","images/D18.png","","","","[""Blobby"",""Stripey""]"
"","","","","","html-slider-response","175","341469","0.0-161.0","1vgtyyhhsd","NaN","<div style=""width:500px;"">
                                <p style=""font-size:50px; font-weight:bold;""
                                ></p>
                                <div style=""width:240px; margin: auto;"">
                                    <img src=""images/D19.png"" style= ""width:200px""alt=""img"">
                                </div>
                            </div>","169","","0","images/D19.png","","","","[""Blobby"",""Stripey""]"
"","","","","","html-slider-response","176","342168","0.0-162.0","1vgtyyhhsd","NaN","<div style=""width:500px;"">
                                <p style=""font-size:50px; font-weight:bold;""
                                ></p>
                                <div style=""width:240px; margin: auto;"">
                                    <img src=""images/D57.png"" style= ""width:200px""alt=""img"">
                                </div>
                            </div>","-149","","0","images/D57.png","","","","[""Blobby"",""Stripey""]"
"","","","","","html-slider-response","177","342902","0.0-163.0","1vgtyyhhsd","NaN","<div style=""width:500px;"">
                                <p style=""font-size:50px; font-weight:bold;""
                                ></p>
                                <div style=""width:240px; margin: auto;"">
                                    <img src=""images/D37.png"" style= ""width:200px""alt=""img"">
                                </div>
                            </div>","110","","0","images/D37.png","","","","[""Blobby"",""Stripey""]"
"","","","","","html-slider-response","178","343618","0.0-164.0","1vgtyyhhsd","NaN","<div style=""width:500px;"">
                                <p style=""font-size:50px; font-weight:bold;""
                                ></p>
                                <div style=""width:240px; margin: auto;"">
                                    <img src=""images/D24.png"" style= ""width:200px""alt=""img"">
                                </div>
                            </div>","-99","","0","images/D24.png","","","","[""Blobby"",""Stripey""]"
"","","","","","html-slider-response","179","344419","0.0-165.0","1vgtyyhhsd","NaN","<div style=""width:500px;"">
                                <p style=""font-size:50px; font-weight:bold;""
                                ></p>
                                <div style=""width:240px; margin: auto;"">
                                    <img src=""images/D84.png"" style= ""width:200px""alt=""img"">
                                </div>
                            </div>","-129","","0","images/D84.png","","","","[""Blobby"",""Stripey""]"
"","","","","","html-slider-response","180","345285","0.0-166.0","1vgtyyhhsd","NaN","<div style=""width:500px;"">
                                <p style=""font-size:50px; font-weight:bold;""
                                ></p>
                                <div style=""width:240px; margin: auto;"">
                                    <img src=""images/D80.png"" style= ""width:200px""alt=""img"">
                                </div>
                            </div>","111","","0","images/D80.png","","","","[""Blobby"",""Stripey""]"
"","","","","","html-slider-response","181","345968","0.0-167.0","1vgtyyhhsd","NaN","<div style=""width:500px;"">
                                <p style=""font-size:50px; font-weight:bold;""
                                ></p>
                                <div style=""width:240px; margin: auto;"">
                                    <img src=""images/D105.png"" style= ""width:200px""alt=""img"">
                                </div>
                            </div>","-84","","0","images/D105.png","","","","[""Blobby"",""Stripey""]"
"","","","","","html-slider-response","182","346736","0.0-168.0","1vgtyyhhsd","NaN","<div style=""width:500px;"">
                                <p style=""font-size:50px; font-weight:bold;""
                                ></p>
                                <div style=""width:240px; margin: auto;"">
                                    <img src=""images/D36.png"" style= ""width:200px""alt=""img"">
                                </div>
                            </div>","127","","0","images/D36.png","","","","[""Blobby"",""Stripey""]"
"","","","","","html-slider-response","183","347369","0.0-169.0","1vgtyyhhsd","NaN","<div style=""width:500px;"">
                                <p style=""font-size:50px; font-weight:bold;""
                                ></p>
                                <div style=""width:240px; margin: auto;"">
                                    <img src=""images/D102.png"" style= ""width:200px""alt=""img"">
                                </div>
                            </div>","-100","","0","images/D102.png","","","","[""Blobby"",""Stripey""]"
"","","","","","html-slider-response","184","348052","0.0-170.0","1vgtyyhhsd","NaN","<div style=""width:500px;"">
                                <p style=""font-size:50px; font-weight:bold;""
                                ></p>
                                <div style=""width:240px; margin: auto;"">
                                    <img src=""images/D49.png"" style= ""width:200px""alt=""img"">
                                </div>
                            </div>","138","","0","images/D49.png","","","","[""Blobby"",""Stripey""]"
"","","","","","html-slider-response","185","348702","0.0-171.0","1vgtyyhhsd","NaN","<div style=""width:500px;"">
                                <p style=""font-size:50px; font-weight:bold;""
                                ></p>
                                <div style=""width:240px; margin: auto;"">
                                    <img src=""images/D3.png"" style= ""width:200px""alt=""img"">
                                </div>
                            </div>","-12","","0","images/D3.png","","","","[""Blobby"",""Stripey""]"
"","","","","","html-slider-response","186","349418","0.0-172.0","1vgtyyhhsd","NaN","<div style=""width:500px;"">
                                <p style=""font-size:50px; font-weight:bold;""
                                ></p>
                                <div style=""width:240px; margin: auto;"">
                                    <img src=""images/D101.png"" style= ""width:200px""alt=""img"">
                                </div>
                            </div>","93","","0","images/D101.png","","","","[""Blobby"",""Stripey""]"
"","","","","","html-slider-response","187","350052","0.0-173.0","1vgtyyhhsd","NaN","<div style=""width:500px;"">
                                <p style=""font-size:50px; font-weight:bold;""
                                ></p>
                                <div style=""width:240px; margin: auto;"">
                                    <img src=""images/D11.png"" style= ""width:200px""alt=""img"">
                                </div>
                            </div>","-110","","0","images/D11.png","","","","[""Blobby"",""Stripey""]"
"","","","","","html-slider-response","188","351452","0.0-174.0","1vgtyyhhsd","NaN","<div style=""width:500px;"">
                                <p style=""font-size:50px; font-weight:bold;""
                                ></p>
                                <div style=""width:240px; margin: auto;"">
                                    <img src=""images/D25.png"" style= ""width:200px""alt=""img"">
                                </div>
                            </div>","-110","","0","images/D25.png","","","","[""Blobby"",""Stripey""]"
"","","","","","html-slider-response","189","352118","0.0-175.0","1vgtyyhhsd","NaN","<div style=""width:500px;"">
                                <p style=""font-size:50px; font-weight:bold;""
                                ></p>
                                <div style=""width:240px; margin: auto;"">
                                    <img src=""images/D1.png"" style= ""width:200px""alt=""img"">
                                </div>
                            </div>","74","","0","images/D1.png","","","","[""Blobby"",""Stripey""]"
"","","","","","html-slider-response","190","352768","0.0-176.0","1vgtyyhhsd","NaN","<div style=""width:500px;"">
                                <p style=""font-size:50px; font-weight:bold;""
                                ></p>
                                <div style=""width:240px; margin: auto;"">
                                    <img src=""images/D66.png"" style= ""width:200px""alt=""img"">
                                </div>
                            </div>","-94","","0","images/D66.png","","","","[""Blobby"",""Stripey""]"
"","","","","","html-slider-response","191","353418","0.0-177.0","1vgtyyhhsd","NaN","<div style=""width:500px;"">
                                <p style=""font-size:50px; font-weight:bold;""
                                ></p>
                                <div style=""width:240px; margin: auto;"">
                                    <img src=""images/D51.png"" style= ""width:200px""alt=""img"">
                                </div>
                            </div>","103","","0","images/D51.png","","","","[""Blobby"",""Stripey""]"
