"success","timeout","failed_images","failed_audio","failed_video","trial_type","trial_index","time_elapsed","internal_node_id","subject_id","rt","stimulus","response","question_order","slider_start","image_path","practiceTrial","practiceTrialNum","correct","slider_labels"
"true","false","[]","[]","[]","preload","0","600","0.0-0.0","305xuvc0vs","","","","","","","","","",""
"","","","","","html-button-response","1","73247293","0.0-1.0","305xuvc0vs","23996269","<div style='text-align:center; font-size:20px; line-height:25px; width: 1200px;'>
                Welcome to our experiment! <br>
                <br>At the bottom of this screen, you will see a button that says 'Begin Experiment.
                <br>Please only click that button when you are ready to complete the 25 minute experiment in one sitting. <br>
                <br> Once you click that button, it will not be possible to restart the experiment. <br><br>","0","","","","","","",""
"true","","","","","fullscreen","2","73249909","0.0-2.0","305xuvc0vs","1614","","","","","","","","",""
"","","","","","survey-multi-select","3","73320429","0.0-3.0","305xuvc0vs","70526","","{""Consent"":[""<strong>I consent</strong>""]}","[0]","","","","","",""
"","","","","","html-button-response","4","73324689","0.0-4.0","305xuvc0vs","4258","Welcome! <p> This experiment involves two parts: demographic information, followed by the experimental task.<p> It will take about 25 minutes to complete both parts.","0","","","","","","",""
"","","","","","survey-text","5","73342491","0.0-5.0","305xuvc0vs","17798","","{""Age"":""19"",""Gender"":""Female"",""Race/ethnicity"":""White/north african""}","","","","","","",""
"","","","","","html-slider-response","6","73370953","0.0-6.0","305xuvc0vs","28460","
                <div style='text-align:center; height: auto; margin-left=-100px; margin-bottom: -20px; font-size:20px; line-height:5px; width: 1200px;'>
                    <br>During this experiment, you will see a series of textures, one at a time, like the ones below: 
                </div>
                    <br>
                    <br>
                    <img src=""anchoring_visual_textures.png"" alt=""img"" style=""max-width:1200px; margin-left: -10px;"">
                </div>
                <div style=""clear: both;""></div>
                </div>
                    <div style='text-align:center; margin-left=-100px; font-size:20px; line-height:20px; width: 1200px; margin-top: -50px;'>
                    
                    <br> For each texture, you will be asked to rate where you think it falls on each of the response scales with the following endpoints:
                    </div>
                            <div style=""text-align: center; width: 1400px; "">
                                <p style=""font-size:20px; line-height:5px; ""><b>Stripey</b> versus <b>Blobby</b></p>
                                <p style=""font-size:20px; line-height:5px; ""><b>Rectangular</b> versus <b>Rounded</b></p>
                                <p style=""font-size:20px;line-height:5px;""><b>Fine</b> versus <b>Coarse</b></p>
                                <p style=""font-size:20px;line-height:5px; ""><b>Smooth</b> versus <b>Rough</b></p>
                                <p style=""font-size:20px;line-height:5px; ""><b>Non-Random</b> versus <b>Random</b></p>
                                <p style=""font-size:20px;line-height:5px;""><b>Soft</b> versus <b>Hard</b></p>
                            </div>
                            <div style='text-align:center; font-size:20px; line-height:20px; width: 1400px;'>
                    
                    Each trial will include one texture and one response scale. You will be asked to make your rating by sliding the cursor along a slider response scale like the one below.
                    <br><br> Before beginning, please look at the textures and scales. For each scale, think about the texture you associate most with the left endpoint. When you see that texture for that response scale, please click near the left of the scale.
                    <br><br> Now, please think about the texture you associate most with the right endpoint of each scale. When you see that texture for that response scale, please click near the right of the scale. 
                    <br><br> If you think a texture is not strongly associated with either endpoint of the scale, please click near the midpoint of the scale. Please use the full range of the scale. 
                    <br><br> You will be asked to rate each texture for a given scale before moving on to the next scale.
                    <br><br> Please press the 'Continue' button for instructions on how to use the slider.                     <br><br>
                ","null","","0","visual_textures_anchoring.png","true","","",""
"","","","","","html-button-response","7","73373896","0.0-7.0","305xuvc0vs","2942","<div style=""width:1200px; margin-top:-150px;""><p style=""text-align:center; font-size:24px;"">To move the slider, click and drag your cursor to the location of the scale where you would like to make your rating and then let go. <br><br> When you let go of the slider, your response will be recorded and the next trial will begin. <br><br><br>
                We are interested in your initial impressions of each texture and scale, so please go with your first intuition. <br><br>
                Before you begin the experiment, there will be four training trials for you to practice using the scale. <br><br><br><br></div>
                <div style=""width:1200px;""><p style=""text-align:center; font-size:20px;"">When you are ready to start the training trials, please click ""Continue"".</p></div>","0","","","","","","",""
"","","","","","html-slider-response","8","73377000","0.0-8.0-0.0","305xuvc0vs","NaN","<div style=""width:500px;"">
                                <p style=""font-size:25px;"">Please move the slider all the way to the <br> right endpoint of the scale</p>

                                </div>
                            </div>","198","","0","","true","0","true",""
"","","","","","html-button-response","9","73378308","0.0-8.0-1.0","305xuvc0vs","802","<p align='center'><b>Good job!</b> Click on 'Continue' to proceed.</p>","0","","","","","","",""
"","","","","","html-slider-response","10","73379460","0.0-9.0-0.0","305xuvc0vs","NaN","<div style=""width:500px;"">
                                <p style=""font-size:25px;"">Please move the slider all the way to the <br> left endpoint of the scale</p>

                                </div>
                            </div>","-200","","0","","true","1","true",""
"","","","","","html-button-response","11","73380985","0.0-9.0-1.0","305xuvc0vs","1023","<p align='center'><b>Good job!</b> Click on 'Continue' to proceed.</p>","0","","","","","","",""
"","","","","","html-slider-response","12","73383400","0.0-10.0-0.0","305xuvc0vs","NaN","<div style=""width:500px;"">
                                <p style=""font-size:25px;"">Please move the slider halfway between the center and right endpoint of the scale</p>

                                </div>
                            </div>","2","","0","","true","2","false",""
"","","","","","html-button-response","13","73386553","0.0-10.0-1.0","305xuvc0vs","2651","<p align='center'><b>Not quite!</b> The slider was not placed near the instructed locattion. Click on 'Continue' to try again. </p>","0","","","","","","",""
"","","","","","html-slider-response","14","73388383","0.0-10.1-0.1","305xuvc0vs","NaN","<div style=""width:500px;"">
                                <p style=""font-size:25px;"">Please move the slider halfway between the center and right endpoint of the scale</p>

                                </div>
                            </div>","0","","0","","true","2","false",""
"","","","","","html-button-response","15","73390154","0.0-10.1-1.1","305xuvc0vs","1268","<p align='center'><b>Not quite!</b> The slider was not placed near the instructed locattion. Click on 'Continue' to try again. </p>","0","","","","","","",""
"","","","","","html-slider-response","16","73392227","0.0-10.2-0.2","305xuvc0vs","NaN","<div style=""width:500px;"">
                                <p style=""font-size:25px;"">Please move the slider halfway between the center and right endpoint of the scale</p>

                                </div>
                            </div>","0","","0","","true","2","false",""
"","","","","","html-button-response","17","73394509","0.0-10.2-1.2","305xuvc0vs","1779","<p align='center'><b>Not quite!</b> The slider was not placed near the instructed locattion. Click on 'Continue' to try again. </p>","0","","","","","","",""
"","","","","","html-slider-response","18","73400132","0.0-10.3-0.3","305xuvc0vs","NaN","<div style=""width:500px;"">
                                <p style=""font-size:25px;"">Please move the slider halfway between the center and right endpoint of the scale</p>

                                </div>
                            </div>","110","","0","","true","2","true",""
"","","","","","html-button-response","19","73401285","0.0-10.3-1.3","305xuvc0vs","651","<p align='center'><b>Good job!</b> Click on 'Continue' to proceed.</p>","0","","","","","","",""
"","","","","","html-slider-response","20","73403626","0.0-11.0-0.0","305xuvc0vs","NaN","<div style=""width:500px;"">
                                <p style=""font-size:25px;"">Please move the slider halfway between the center and left endpoint of the scale</p>

                                </div>
                            </div>","-101","","0","","true","3","true",""
"","","","","","html-button-response","21","73404618","0.0-11.0-1.0","305xuvc0vs","490","<p align='center'><b>Good job!</b> Click on 'Continue' to proceed.</p>","0","","","","","","",""
"","","","","","html-button-response","22","73408154","0.0-12.0","305xuvc0vs","3536","<div style=""width:800px; margin-top:-300px;""><p style=""text-align:center; font-size:22px; line-height:25px;""""> Great job! You've completed the practice trials.</div>
                     <div style=""width:800px; margin-top:-20px;""><p style=""text-align:center""><br><br> In the following trials, you will be asked to rate textures on each scale one-by-one. <br> You will be given opportunities to take breaks when you have completed each block of trials. There are six total blocks of trials. <br><br> Please click continue to begin the main task.<br><br><br> </div>","0","","","","","","",""
"","","","","","html-button-response","23","73411140","0.0-13.0","305xuvc0vs","2985","In the following trials, you will be asked to rate textures on the scale <b>Soft</b> versus <b>Hard</b>. Please click 'Continue' when you are ready proceed.","0","","","","","","",""
"","","","","","html-slider-response","24","73413544","0.0-14.0","305xuvc0vs","NaN","<div style=""width:500px;"">
                                <p style=""font-size:50px; font-weight:bold;""
                                ></p>
                                <div style=""width:240px; margin: auto;"">
                                    <img src=""images/D36.png"" style= ""width:200px""alt=""img"">
                                </div>
                            </div>","-97","","0","images/D36.png","","","","[""Hard"",""Soft""]"
"","","","","","html-slider-response","25","73415938","0.0-15.0","305xuvc0vs","NaN","<div style=""width:500px;"">
                                <p style=""font-size:50px; font-weight:bold;""
                                ></p>
                                <div style=""width:240px; margin: auto;"">
                                    <img src=""images/D96.png"" style= ""width:200px""alt=""img"">
                                </div>
                            </div>","-89","","0","images/D96.png","","","","[""Hard"",""Soft""]"
"","","","","","html-slider-response","26","73418172","0.0-16.0","305xuvc0vs","NaN","<div style=""width:500px;"">
                                <p style=""font-size:50px; font-weight:bold;""
                                ></p>
                                <div style=""width:240px; margin: auto;"">
                                    <img src=""images/D32.png"" style= ""width:200px""alt=""img"">
                                </div>
                            </div>","-49","","0","images/D32.png","","","","[""Hard"",""Soft""]"
"","","","","","html-slider-response","27","73421070","0.0-17.0","305xuvc0vs","NaN","<div style=""width:500px;"">
                                <p style=""font-size:50px; font-weight:bold;""
                                ></p>
                                <div style=""width:240px; margin: auto;"">
                                    <img src=""images/D16.png"" style= ""width:200px""alt=""img"">
                                </div>
                            </div>","-13","","0","images/D16.png","","","","[""Hard"",""Soft""]"
"","","","","","html-slider-response","28","73423286","0.0-18.0","305xuvc0vs","NaN","<div style=""width:500px;"">
                                <p style=""font-size:50px; font-weight:bold;""
                                ></p>
                                <div style=""width:240px; margin: auto;"">
                                    <img src=""images/D19.png"" style= ""width:200px""alt=""img"">
                                </div>
                            </div>","-80","","0","images/D19.png","","","","[""Hard"",""Soft""]"
"","","","","","html-slider-response","29","73425413","0.0-19.0","305xuvc0vs","NaN","<div style=""width:500px;"">
                                <p style=""font-size:50px; font-weight:bold;""
                                ></p>
                                <div style=""width:240px; margin: auto;"">
                                    <img src=""images/D18.png"" style= ""width:200px""alt=""img"">
                                </div>
                            </div>","-140","","0","images/D18.png","","","","[""Hard"",""Soft""]"
"","","","","","html-slider-response","30","73428480","0.0-20.0","305xuvc0vs","NaN","<div style=""width:500px;"">
                                <p style=""font-size:50px; font-weight:bold;""
                                ></p>
                                <div style=""width:240px; margin: auto;"">
                                    <img src=""images/D6.png"" style= ""width:200px""alt=""img"">
                                </div>
                            </div>","-47","","0","images/D6.png","","","","[""Hard"",""Soft""]"
"","","","","","html-slider-response","31","73430365","0.0-21.0","305xuvc0vs","NaN","<div style=""width:500px;"">
                                <p style=""font-size:50px; font-weight:bold;""
                                ></p>
                                <div style=""width:240px; margin: auto;"">
                                    <img src=""images/D4.png"" style= ""width:200px""alt=""img"">
                                </div>
                            </div>","-42","","0","images/D4.png","","","","[""Hard"",""Soft""]"
"","","","","","html-slider-response","32","73433019","0.0-22.0","305xuvc0vs","NaN","<div style=""width:500px;"">
                                <p style=""font-size:50px; font-weight:bold;""
                                ></p>
                                <div style=""width:240px; margin: auto;"">
                                    <img src=""images/D34.png"" style= ""width:200px""alt=""img"">
                                </div>
                            </div>","-17","","0","images/D34.png","","","","[""Hard"",""Soft""]"
"","","","","","html-slider-response","33","73437738","0.0-23.0","305xuvc0vs","NaN","<div style=""width:500px;"">
                                <p style=""font-size:50px; font-weight:bold;""
                                ></p>
                                <div style=""width:240px; margin: auto;"">
                                    <img src=""images/D81.png"" style= ""width:200px""alt=""img"">
                                </div>
                            </div>","-19","","0","images/D81.png","","","","[""Hard"",""Soft""]"
"","","","","","html-slider-response","34","73440089","0.0-24.0","305xuvc0vs","NaN","<div style=""width:500px;"">
                                <p style=""font-size:50px; font-weight:bold;""
                                ></p>
                                <div style=""width:240px; margin: auto;"">
                                    <img src=""images/D78.png"" style= ""width:200px""alt=""img"">
                                </div>
                            </div>","-18","","0","images/D78.png","","","","[""Hard"",""Soft""]"
"","","","","","html-slider-response","35","73444783","0.0-25.0","305xuvc0vs","NaN","<div style=""width:500px;"">
                                <p style=""font-size:50px; font-weight:bold;""
                                ></p>
                                <div style=""width:240px; margin: auto;"">
                                    <img src=""images/D87.png"" style= ""width:200px""alt=""img"">
                                </div>
                            </div>","-41","","0","images/D87.png","","","","[""Hard"",""Soft""]"
"","","","","","html-slider-response","36","73450835","0.0-26.0","305xuvc0vs","NaN","<div style=""width:500px;"">
                                <p style=""font-size:50px; font-weight:bold;""
                                ></p>
                                <div style=""width:240px; margin: auto;"">
                                    <img src=""images/D25.png"" style= ""width:200px""alt=""img"">
                                </div>
                            </div>","-112","","0","images/D25.png","","","","[""Hard"",""Soft""]"
"","","","","","html-slider-response","37","73453981","0.0-27.0","305xuvc0vs","NaN","<div style=""width:500px;"">
                                <p style=""font-size:50px; font-weight:bold;""
                                ></p>
                                <div style=""width:240px; margin: auto;"">
                                    <img src=""images/D102.png"" style= ""width:200px""alt=""img"">
                                </div>
                            </div>","-21","","0","images/D102.png","","","","[""Hard"",""Soft""]"
"","","","","","html-slider-response","38","73461377","0.0-28.0","305xuvc0vs","NaN","<div style=""width:500px;"">
                                <p style=""font-size:50px; font-weight:bold;""
                                ></p>
                                <div style=""width:240px; margin: auto;"">
                                    <img src=""images/D76.png"" style= ""width:200px""alt=""img"">
                                </div>
                            </div>","-18","","0","images/D76.png","","","","[""Hard"",""Soft""]"
"","","","","","html-slider-response","39","73466967","0.0-29.0","305xuvc0vs","NaN","<div style=""width:500px;"">
                                <p style=""font-size:50px; font-weight:bold;""
                                ></p>
                                <div style=""width:240px; margin: auto;"">
                                    <img src=""images/D66.png"" style= ""width:200px""alt=""img"">
                                </div>
                            </div>","-10","","0","images/D66.png","","","","[""Hard"",""Soft""]"
"","","","","","html-slider-response","40","73470010","0.0-30.0","305xuvc0vs","NaN","<div style=""width:500px;"">
                                <p style=""font-size:50px; font-weight:bold;""
                                ></p>
                                <div style=""width:240px; margin: auto;"">
                                    <img src=""images/D53.png"" style= ""width:200px""alt=""img"">
                                </div>
                            </div>","-1","","0","images/D53.png","","","","[""Hard"",""Soft""]"
"","","","","","html-slider-response","41","73474167","0.0-31.0","305xuvc0vs","NaN","<div style=""width:500px;"">
                                <p style=""font-size:50px; font-weight:bold;""
                                ></p>
                                <div style=""width:240px; margin: auto;"">
                                    <img src=""images/D79.png"" style= ""width:200px""alt=""img"">
                                </div>
                            </div>","-18","","0","images/D79.png","","","","[""Hard"",""Soft""]"
"","","","","","html-slider-response","42","73476545","0.0-32.0","305xuvc0vs","NaN","<div style=""width:500px;"">
                                <p style=""font-size:50px; font-weight:bold;""
                                ></p>
                                <div style=""width:240px; margin: auto;"">
                                    <img src=""images/D22.png"" style= ""width:200px""alt=""img"">
                                </div>
                            </div>","-47","","0","images/D22.png","","","","[""Hard"",""Soft""]"
"","","","","","html-slider-response","43","73484821","0.0-33.0","305xuvc0vs","NaN","<div style=""width:500px;"">
                                <p style=""font-size:50px; font-weight:bold;""
                                ></p>
                                <div style=""width:240px; margin: auto;"">
                                    <img src=""images/D105.png"" style= ""width:200px""alt=""img"">
                                </div>
                            </div>","-6","","0","images/D105.png","","","","[""Hard"",""Soft""]"
"","","","","","html-slider-response","44","73494368","0.0-34.0","305xuvc0vs","NaN","<div style=""width:500px;"">
                                <p style=""font-size:50px; font-weight:bold;""
                                ></p>
                                <div style=""width:240px; margin: auto;"">
                                    <img src=""images/D52.png"" style= ""width:200px""alt=""img"">
                                </div>
                            </div>","-30","","0","images/D52.png","","","","[""Hard"",""Soft""]"
"","","","","","html-slider-response","45","73500819","0.0-35.0","305xuvc0vs","NaN","<div style=""width:500px;"">
                                <p style=""font-size:50px; font-weight:bold;""
                                ></p>
                                <div style=""width:240px; margin: auto;"">
                                    <img src=""images/D1.png"" style= ""width:200px""alt=""img"">
                                </div>
                            </div>","-66","","0","images/D1.png","","","","[""Hard"",""Soft""]"
"","","","","","html-slider-response","46","73509080","0.0-36.0","305xuvc0vs","NaN","<div style=""width:500px;"">
                                <p style=""font-size:50px; font-weight:bold;""
                                ></p>
                                <div style=""width:240px; margin: auto;"">
                                    <img src=""images/D92.png"" style= ""width:200px""alt=""img"">
                                </div>
                            </div>","-46","","0","images/D92.png","","","","[""Hard"",""Soft""]"
"","","","","","html-slider-response","47","73528377","0.0-37.0","305xuvc0vs","NaN","<div style=""width:500px;"">
                                <p style=""font-size:50px; font-weight:bold;""
                                ></p>
                                <div style=""width:240px; margin: auto;"">
                                    <img src=""images/D101.png"" style= ""width:200px""alt=""img"">
                                </div>
                            </div>","3","","0","images/D101.png","","","","[""Hard"",""Soft""]"
"","","","","","html-slider-response","48","73539403","0.0-38.0","305xuvc0vs","NaN","<div style=""width:500px;"">
                                <p style=""font-size:50px; font-weight:bold;""
                                ></p>
                                <div style=""width:240px; margin: auto;"">
                                    <img src=""images/D104.png"" style= ""width:200px""alt=""img"">
                                </div>
                            </div>","-110","","0","images/D104.png","","","","[""Hard"",""Soft""]"
"","","","","","html-slider-response","49","73542143","0.0-39.0","305xuvc0vs","NaN","<div style=""width:500px;"">
                                <p style=""font-size:50px; font-weight:bold;""
                                ></p>
                                <div style=""width:240px; margin: auto;"">
                                    <img src=""images/D26.png"" style= ""width:200px""alt=""img"">
                                </div>
                            </div>","-158","","0","images/D26.png","","","","[""Hard"",""Soft""]"
"","","","","","html-slider-response","50","73546399","0.0-40.0","305xuvc0vs","NaN","<div style=""width:500px;"">
                                <p style=""font-size:50px; font-weight:bold;""
                                ></p>
                                <div style=""width:240px; margin: auto;"">
                                    <img src=""images/D85.png"" style= ""width:200px""alt=""img"">
                                </div>
                            </div>","-77","","0","images/D85.png","","","","[""Hard"",""Soft""]"
"","","","","","html-slider-response","51","73551677","0.0-41.0","305xuvc0vs","NaN","<div style=""width:500px;"">
                                <p style=""font-size:50px; font-weight:bold;""
                                ></p>
                                <div style=""width:240px; margin: auto;"">
                                    <img src=""images/D75.png"" style= ""width:200px""alt=""img"">
                                </div>
                            </div>","3","","0","images/D75.png","","","","[""Hard"",""Soft""]"
"","","","","","html-slider-response","52","73604826","0.0-42.0","305xuvc0vs","NaN","<div style=""width:500px;"">
                                <p style=""font-size:50px; font-weight:bold;""
                                ></p>
                                <div style=""width:240px; margin: auto;"">
                                    <img src=""images/D68.png"" style= ""width:200px""alt=""img"">
                                </div>
                            </div>","-28","","0","images/D68.png","","","","[""Hard"",""Soft""]"
"","","","","","html-slider-response","53","73617495","0.0-43.0","305xuvc0vs","NaN","<div style=""width:500px;"">
                                <p style=""font-size:50px; font-weight:bold;""
                                ></p>
                                <div style=""width:240px; margin: auto;"">
                                    <img src=""images/D83.png"" style= ""width:200px""alt=""img"">
                                </div>
                            </div>","-37","","0","images/D83.png","","","","[""Hard"",""Soft""]"
"","","","","","html-slider-response","54","73623158","0.0-44.0","305xuvc0vs","NaN","<div style=""width:500px;"">
                                <p style=""font-size:50px; font-weight:bold;""
                                ></p>
                                <div style=""width:240px; margin: auto;"">
                                    <img src=""images/D77.png"" style= ""width:200px""alt=""img"">
                                </div>
                            </div>","70","","0","images/D77.png","","","","[""Hard"",""Soft""]"
"","","","","","html-slider-response","55","73630546","0.0-45.0","305xuvc0vs","NaN","<div style=""width:500px;"">
                                <p style=""font-size:50px; font-weight:bold;""
                                ></p>
                                <div style=""width:240px; margin: auto;"">
                                    <img src=""images/D8.png"" style= ""width:200px""alt=""img"">
                                </div>
                            </div>","-16","","0","images/D8.png","","","","[""Hard"",""Soft""]"
"","","","","","html-slider-response","56","73633925","0.0-46.0","305xuvc0vs","NaN","<div style=""width:500px;"">
                                <p style=""font-size:50px; font-weight:bold;""
                                ></p>
                                <div style=""width:240px; margin: auto;"">
                                    <img src=""images/D21.png"" style= ""width:200px""alt=""img"">
                                </div>
                            </div>","46","","0","images/D21.png","","","","[""Hard"",""Soft""]"
"","","","","","html-slider-response","57","73637404","0.0-47.0","305xuvc0vs","NaN","<div style=""width:500px;"">
                                <p style=""font-size:50px; font-weight:bold;""
                                ></p>
                                <div style=""width:240px; margin: auto;"">
                                    <img src=""images/D80.png"" style= ""width:200px""alt=""img"">
                                </div>
                            </div>","-24","","0","images/D80.png","","","","[""Hard"",""Soft""]"
"","","","","","html-slider-response","58","73641651","0.0-48.0","305xuvc0vs","NaN","<div style=""width:500px;"">
                                <p style=""font-size:50px; font-weight:bold;""
                                ></p>
                                <div style=""width:240px; margin: auto;"">
                                    <img src=""images/D49.png"" style= ""width:200px""alt=""img"">
                                </div>
                            </div>","50","","0","images/D49.png","","","","[""Hard"",""Soft""]"
"","","","","","html-slider-response","59","73645939","0.0-49.0","305xuvc0vs","NaN","<div style=""width:500px;"">
                                <p style=""font-size:50px; font-weight:bold;""
                                ></p>
                                <div style=""width:240px; margin: auto;"">
                                    <img src=""images/D84.png"" style= ""width:200px""alt=""img"">
                                </div>
                            </div>","-50","","0","images/D84.png","","","","[""Hard"",""Soft""]"
"","","","","","html-slider-response","60","73649619","0.0-50.0","305xuvc0vs","NaN","<div style=""width:500px;"">
                                <p style=""font-size:50px; font-weight:bold;""
                                ></p>
                                <div style=""width:240px; margin: auto;"">
                                    <img src=""images/D111.png"" style= ""width:200px""alt=""img"">
                                </div>
                            </div>","-36","","0","images/D111.png","","","","[""Hard"",""Soft""]"
"","","","","","html-slider-response","61","73652257","0.0-51.0","305xuvc0vs","NaN","<div style=""width:500px;"">
                                <p style=""font-size:50px; font-weight:bold;""
                                ></p>
                                <div style=""width:240px; margin: auto;"">
                                    <img src=""images/D24.png"" style= ""width:200px""alt=""img"">
                                </div>
                            </div>","-78","","0","images/D24.png","","","","[""Hard"",""Soft""]"
"","","","","","html-slider-response","62","73655032","0.0-52.0","305xuvc0vs","NaN","<div style=""width:500px;"">
                                <p style=""font-size:50px; font-weight:bold;""
                                ></p>
                                <div style=""width:240px; margin: auto;"">
                                    <img src=""images/D95.png"" style= ""width:200px""alt=""img"">
                                </div>
                            </div>","-119","","0","images/D95.png","","","","[""Hard"",""Soft""]"
"","","","","","html-slider-response","63","73657499","0.0-53.0","305xuvc0vs","NaN","<div style=""width:500px;"">
                                <p style=""font-size:50px; font-weight:bold;""
                                ></p>
                                <div style=""width:240px; margin: auto;"">
                                    <img src=""images/D11.png"" style= ""width:200px""alt=""img"">
                                </div>
                            </div>","-122","","0","images/D11.png","","","","[""Hard"",""Soft""]"
"","","","","","html-slider-response","64","73660928","0.0-54.0","305xuvc0vs","NaN","<div style=""width:500px;"">
                                <p style=""font-size:50px; font-weight:bold;""
                                ></p>
                                <div style=""width:240px; margin: auto;"">
                                    <img src=""images/D47.png"" style= ""width:200px""alt=""img"">
                                </div>
                            </div>","-1","","0","images/D47.png","","","","[""Hard"",""Soft""]"
"","","","","","html-slider-response","65","73669594","0.0-55.0","305xuvc0vs","NaN","<div style=""width:500px;"">
                                <p style=""font-size:50px; font-weight:bold;""
                                ></p>
                                <div style=""width:240px; margin: auto;"">
                                    <img src=""images/D51.png"" style= ""width:200px""alt=""img"">
                                </div>
                            </div>","34","","0","images/D51.png","","","","[""Hard"",""Soft""]"
"","","","","","html-slider-response","66","73671785","0.0-56.0","305xuvc0vs","NaN","<div style=""width:500px;"">
                                <p style=""font-size:50px; font-weight:bold;""
                                ></p>
                                <div style=""width:240px; margin: auto;"">
                                    <img src=""images/D65.png"" style= ""width:200px""alt=""img"">
                                </div>
                            </div>","-107","","0","images/D65.png","","","","[""Hard"",""Soft""]"
"","","","","","html-slider-response","67","73673816","0.0-57.0","305xuvc0vs","NaN","<div style=""width:500px;"">
                                <p style=""font-size:50px; font-weight:bold;""
                                ></p>
                                <div style=""width:240px; margin: auto;"">
                                    <img src=""images/D9.png"" style= ""width:200px""alt=""img"">
                                </div>
                            </div>","-103","","0","images/D9.png","","","","[""Hard"",""Soft""]"
"","","","","","html-slider-response","68","73675773","0.0-58.0","305xuvc0vs","NaN","<div style=""width:500px;"">
                                <p style=""font-size:50px; font-weight:bold;""
                                ></p>
                                <div style=""width:240px; margin: auto;"">
                                    <img src=""images/D94.png"" style= ""width:200px""alt=""img"">
                                </div>
                            </div>","-100","","0","images/D94.png","","","","[""Hard"",""Soft""]"
"","","","","","html-slider-response","69","73678006","0.0-59.0","305xuvc0vs","NaN","<div style=""width:500px;"">
                                <p style=""font-size:50px; font-weight:bold;""
                                ></p>
                                <div style=""width:240px; margin: auto;"">
                                    <img src=""images/D17.png"" style= ""width:200px""alt=""img"">
                                </div>
                            </div>","-106","","0","images/D17.png","","","","[""Hard"",""Soft""]"
"","","","","","html-slider-response","70","73680699","0.0-60.0","305xuvc0vs","NaN","<div style=""width:500px;"">
                                <p style=""font-size:50px; font-weight:bold;""
                                ></p>
                                <div style=""width:240px; margin: auto;"">
                                    <img src=""images/D35.png"" style= ""width:200px""alt=""img"">
                                </div>
                            </div>","-35","","0","images/D35.png","","","","[""Hard"",""Soft""]"
"","","","","","html-slider-response","71","73682658","0.0-61.0","305xuvc0vs","NaN","<div style=""width:500px;"">
                                <p style=""font-size:50px; font-weight:bold;""
                                ></p>
                                <div style=""width:240px; margin: auto;"">
                                    <img src=""images/D57.png"" style= ""width:200px""alt=""img"">
                                </div>
                            </div>","-83","","0","images/D57.png","","","","[""Hard"",""Soft""]"
"","","","","","html-slider-response","72","73692413","0.0-62.0","305xuvc0vs","NaN","<div style=""width:500px;"">
                                <p style=""font-size:50px; font-weight:bold;""
                                ></p>
                                <div style=""width:240px; margin: auto;"">
                                    <img src=""images/D106.png"" style= ""width:200px""alt=""img"">
                                </div>
                            </div>","-18","","0","images/D106.png","","","","[""Hard"",""Soft""]"
"","","","","","html-slider-response","73","73697006","0.0-63.0","305xuvc0vs","NaN","<div style=""width:500px;"">
                                <p style=""font-size:50px; font-weight:bold;""
                                ></p>
                                <div style=""width:240px; margin: auto;"">
                                    <img src=""images/D46.png"" style= ""width:200px""alt=""img"">
                                </div>
                            </div>","2","","0","images/D46.png","","","","[""Hard"",""Soft""]"
"","","","","","html-slider-response","74","73702296","0.0-64.0","305xuvc0vs","NaN","<div style=""width:500px;"">
                                <p style=""font-size:50px; font-weight:bold;""
                                ></p>
                                <div style=""width:240px; margin: auto;"">
                                    <img src=""images/D64.png"" style= ""width:200px""alt=""img"">
                                </div>
                            </div>","-47","","0","images/D64.png","","","","[""Hard"",""Soft""]"
"","","","","","html-slider-response","75","73707044","0.0-65.0","305xuvc0vs","NaN","<div style=""width:500px;"">
                                <p style=""font-size:50px; font-weight:bold;""
                                ></p>
                                <div style=""width:240px; margin: auto;"">
                                    <img src=""images/D29.png"" style= ""width:200px""alt=""img"">
                                </div>
                            </div>","-61","","0","images/D29.png","","","","[""Hard"",""Soft""]"
"","","","","","html-slider-response","76","73718661","0.0-66.0","305xuvc0vs","NaN","<div style=""width:500px;"">
                                <p style=""font-size:50px; font-weight:bold;""
                                ></p>
                                <div style=""width:240px; margin: auto;"">
                                    <img src=""images/D103.png"" style= ""width:200px""alt=""img"">
                                </div>
                            </div>","-90","","0","images/D103.png","","","","[""Hard"",""Soft""]"
"","","","","","html-slider-response","77","73725478","0.0-67.0","305xuvc0vs","NaN","<div style=""width:500px;"">
                                <p style=""font-size:50px; font-weight:bold;""
                                ></p>
                                <div style=""width:240px; margin: auto;"">
                                    <img src=""images/D3.png"" style= ""width:200px""alt=""img"">
                                </div>
                            </div>","-56","","0","images/D3.png","","","","[""Hard"",""Soft""]"
"","","","","","html-slider-response","78","73745048","0.0-68.0","305xuvc0vs","NaN","<div style=""width:500px;"">
                                <p style=""font-size:50px; font-weight:bold;""
                                ></p>
                                <div style=""width:240px; margin: auto;"">
                                    <img src=""images/D37.png"" style= ""width:200px""alt=""img"">
                                </div>
                            </div>","-57","","0","images/D37.png","","","","[""Hard"",""Soft""]"
"","","","","","html-slider-response","79","73747506","0.0-69.0","305xuvc0vs","NaN","<div style=""width:500px;"">
                                <p style=""font-size:50px; font-weight:bold;""
                                ></p>
                                <div style=""width:240px; margin: auto;"">
                                    <img src=""images/D82.png"" style= ""width:200px""alt=""img"">
                                </div>
                            </div>","-76","","0","images/D82.png","","","","[""Hard"",""Soft""]"
"","","","","","html-slider-response","80","73750934","0.0-70.0","305xuvc0vs","NaN","<div style=""width:500px;"">
                                <p style=""font-size:50px; font-weight:bold;""
                                ></p>
                                <div style=""width:240px; margin: auto;"">
                                    <img src=""images/D74.png"" style= ""width:200px""alt=""img"">
                                </div>
                            </div>","65","","0","images/D74.png","","","","[""Hard"",""Soft""]"
"","","","","","html-slider-response","81","73755051","0.0-71.0","305xuvc0vs","NaN","<div style=""width:500px;"">
                                <p style=""font-size:50px; font-weight:bold;""
                                ></p>
                                <div style=""width:240px; margin: auto;"">
                                    <img src=""images/D48.png"" style= ""width:200px""alt=""img"">
                                </div>
                            </div>","82","","0","images/D48.png","","","","[""Hard"",""Soft""]"
"","","","","","html-slider-response","82","73758537","0.0-72.0","305xuvc0vs","NaN","<div style=""width:500px;"">
                                <p style=""font-size:50px; font-weight:bold;""
                                ></p>
                                <div style=""width:240px; margin: auto;"">
                                    <img src=""images/D14.png"" style= ""width:200px""alt=""img"">
                                </div>
                            </div>","-68","","0","images/D14.png","","","","[""Hard"",""Soft""]"
"","","","","","html-slider-response","83","73761458","0.0-73.0","305xuvc0vs","NaN","<div style=""width:500px;"">
                                <p style=""font-size:50px; font-weight:bold;""
                                ></p>
                                <div style=""width:240px; margin: auto;"">
                                    <img src=""images/D56.png"" style= ""width:200px""alt=""img"">
                                </div>
                            </div>","-77","","0","images/D56.png","","","","[""Hard"",""Soft""]"
"","","","","","html-slider-response","84","73764014","0.0-74.0","305xuvc0vs","NaN","<div style=""width:500px;"">
                                <p style=""font-size:50px; font-weight:bold;""
                                ></p>
                                <div style=""width:240px; margin: auto;"">
                                    <img src=""images/D20.png"" style= ""width:200px""alt=""img"">
                                </div>
                            </div>","-25","","0","images/D20.png","","","","[""Hard"",""Soft""]"
"","","","","","html-slider-response","85","73766279","0.0-75.0","305xuvc0vs","NaN","<div style=""width:500px;"">
                                <p style=""font-size:50px; font-weight:bold;""
                                ></p>
                                <div style=""width:240px; margin: auto;"">
                                    <img src=""images/D55.png"" style= ""width:200px""alt=""img"">
                                </div>
                            </div>","-62","","0","images/D55.png","","","","[""Hard"",""Soft""]"
"","","","","","html-button-response","86","73768485","0.0-76.0","305xuvc0vs","1704","You have completed the first block of trials out of six. Please click 'Continue' when you are ready proceed.","0","","","","","","",""
"","","","","","html-button-response","87","73905203","0.0-77.0","305xuvc0vs","136718","In the following trials, you will be asked to rate textures on the scale <b>Smooth</b> versus <b>Rough</b>. Please click 'Continue' when you are ready proceed.","0","","","","","","",""
"","","","","","html-slider-response","88","73909986","0.0-78.0","305xuvc0vs","NaN","<div style=""width:500px;"">
                                <p style=""font-size:50px; font-weight:bold;""
                                ></p>
                                <div style=""width:240px; margin: auto;"">
                                    <img src=""images/D36.png"" style= ""width:200px""alt=""img"">
                                </div>
                            </div>","42","","0","images/D36.png","","","","[""Smooth"",""Rough""]"
"","","","","","html-slider-response","89","73916381","0.0-79.0","305xuvc0vs","NaN","<div style=""width:500px;"">
                                <p style=""font-size:50px; font-weight:bold;""
                                ></p>
                                <div style=""width:240px; margin: auto;"">
                                    <img src=""images/D96.png"" style= ""width:200px""alt=""img"">
                                </div>
                            </div>","68","","0","images/D96.png","","","","[""Smooth"",""Rough""]"
"","","","","","html-slider-response","90","73920168","0.0-80.0","305xuvc0vs","NaN","<div style=""width:500px;"">
                                <p style=""font-size:50px; font-weight:bold;""
                                ></p>
                                <div style=""width:240px; margin: auto;"">
                                    <img src=""images/D32.png"" style= ""width:200px""alt=""img"">
                                </div>
                            </div>","19","","0","images/D32.png","","","","[""Smooth"",""Rough""]"
"","","","","","html-slider-response","91","73922530","0.0-81.0","305xuvc0vs","NaN","<div style=""width:500px;"">
                                <p style=""font-size:50px; font-weight:bold;""
                                ></p>
                                <div style=""width:240px; margin: auto;"">
                                    <img src=""images/D16.png"" style= ""width:200px""alt=""img"">
                                </div>
                            </div>","40","","0","images/D16.png","","","","[""Smooth"",""Rough""]"
"","","","","","html-slider-response","92","73924618","0.0-82.0","305xuvc0vs","NaN","<div style=""width:500px;"">
                                <p style=""font-size:50px; font-weight:bold;""
                                ></p>
                                <div style=""width:240px; margin: auto;"">
                                    <img src=""images/D19.png"" style= ""width:200px""alt=""img"">
                                </div>
                            </div>","48","","0","images/D19.png","","","","[""Smooth"",""Rough""]"
"","","","","","html-slider-response","93","73927554","0.0-83.0","305xuvc0vs","NaN","<div style=""width:500px;"">
                                <p style=""font-size:50px; font-weight:bold;""
                                ></p>
                                <div style=""width:240px; margin: auto;"">
                                    <img src=""images/D18.png"" style= ""width:200px""alt=""img"">
                                </div>
                            </div>","-64","","0","images/D18.png","","","","[""Smooth"",""Rough""]"
"","","","","","html-slider-response","94","73933419","0.0-84.0","305xuvc0vs","NaN","<div style=""width:500px;"">
                                <p style=""font-size:50px; font-weight:bold;""
                                ></p>
                                <div style=""width:240px; margin: auto;"">
                                    <img src=""images/D6.png"" style= ""width:200px""alt=""img"">
                                </div>
                            </div>","26","","0","images/D6.png","","","","[""Smooth"",""Rough""]"
"","","","","","html-slider-response","95","73936566","0.0-85.0","305xuvc0vs","NaN","<div style=""width:500px;"">
                                <p style=""font-size:50px; font-weight:bold;""
                                ></p>
                                <div style=""width:240px; margin: auto;"">
                                    <img src=""images/D4.png"" style= ""width:200px""alt=""img"">
                                </div>
                            </div>","200","","0","images/D4.png","","","","[""Smooth"",""Rough""]"
"","","","","","html-slider-response","96","73940788","0.0-86.0","305xuvc0vs","NaN","<div style=""width:500px;"">
                                <p style=""font-size:50px; font-weight:bold;""
                                ></p>
                                <div style=""width:240px; margin: auto;"">
                                    <img src=""images/D34.png"" style= ""width:200px""alt=""img"">
                                </div>
                            </div>","98","","0","images/D34.png","","","","[""Smooth"",""Rough""]"
"","","","","","html-slider-response","97","73950437","0.0-87.0","305xuvc0vs","NaN","<div style=""width:500px;"">
                                <p style=""font-size:50px; font-weight:bold;""
                                ></p>
                                <div style=""width:240px; margin: auto;"">
                                    <img src=""images/D81.png"" style= ""width:200px""alt=""img"">
                                </div>
                            </div>","54","","0","images/D81.png","","","","[""Smooth"",""Rough""]"
"","","","","","html-slider-response","98","73953341","0.0-88.0","305xuvc0vs","NaN","<div style=""width:500px;"">
                                <p style=""font-size:50px; font-weight:bold;""
                                ></p>
                                <div style=""width:240px; margin: auto;"">
                                    <img src=""images/D78.png"" style= ""width:200px""alt=""img"">
                                </div>
                            </div>","52","","0","images/D78.png","","","","[""Smooth"",""Rough""]"
"","","","","","html-slider-response","99","73967486","0.0-89.0","305xuvc0vs","NaN","<div style=""width:500px;"">
                                <p style=""font-size:50px; font-weight:bold;""
                                ></p>
                                <div style=""width:240px; margin: auto;"">
                                    <img src=""images/D87.png"" style= ""width:200px""alt=""img"">
                                </div>
                            </div>","4","","0","images/D87.png","","","","[""Smooth"",""Rough""]"
"","","","","","html-slider-response","100","73971231","0.0-90.0","305xuvc0vs","NaN","<div style=""width:500px;"">
                                <p style=""font-size:50px; font-weight:bold;""
                                ></p>
                                <div style=""width:240px; margin: auto;"">
                                    <img src=""images/D25.png"" style= ""width:200px""alt=""img"">
                                </div>
                            </div>","200","","0","images/D25.png","","","","[""Smooth"",""Rough""]"
"","","","","","html-slider-response","101","73974457","0.0-91.0","305xuvc0vs","NaN","<div style=""width:500px;"">
                                <p style=""font-size:50px; font-weight:bold;""
                                ></p>
                                <div style=""width:240px; margin: auto;"">
                                    <img src=""images/D102.png"" style= ""width:200px""alt=""img"">
                                </div>
                            </div>","-96","","0","images/D102.png","","","","[""Smooth"",""Rough""]"
"","","","","","html-slider-response","102","73983186","0.0-92.0","305xuvc0vs","NaN","<div style=""width:500px;"">
                                <p style=""font-size:50px; font-weight:bold;""
                                ></p>
                                <div style=""width:240px; margin: auto;"">
                                    <img src=""images/D76.png"" style= ""width:200px""alt=""img"">
                                </div>
                            </div>","1","","0","images/D76.png","","","","[""Smooth"",""Rough""]"
"","","","","","html-slider-response","103","73987455","0.0-93.0","305xuvc0vs","NaN","<div style=""width:500px;"">
                                <p style=""font-size:50px; font-weight:bold;""
                                ></p>
                                <div style=""width:240px; margin: auto;"">
                                    <img src=""images/D66.png"" style= ""width:200px""alt=""img"">
                                </div>
                            </div>","-100","","0","images/D66.png","","","","[""Smooth"",""Rough""]"
"","","","","","html-slider-response","104","73990294","0.0-94.0","305xuvc0vs","NaN","<div style=""width:500px;"">
                                <p style=""font-size:50px; font-weight:bold;""
                                ></p>
                                <div style=""width:240px; margin: auto;"">
                                    <img src=""images/D53.png"" style= ""width:200px""alt=""img"">
                                </div>
                            </div>","45","","0","images/D53.png","","","","[""Smooth"",""Rough""]"
"","","","","","html-slider-response","105","73992536","0.0-95.0","305xuvc0vs","NaN","<div style=""width:500px;"">
                                <p style=""font-size:50px; font-weight:bold;""
                                ></p>
                                <div style=""width:240px; margin: auto;"">
                                    <img src=""images/D79.png"" style= ""width:200px""alt=""img"">
                                </div>
                            </div>","54","","0","images/D79.png","","","","[""Smooth"",""Rough""]"
"","","","","","html-slider-response","106","73996119","0.0-96.0","305xuvc0vs","NaN","<div style=""width:500px;"">
                                <p style=""font-size:50px; font-weight:bold;""
                                ></p>
                                <div style=""width:240px; margin: auto;"">
                                    <img src=""images/D22.png"" style= ""width:200px""alt=""img"">
                                </div>
                            </div>","-39","","0","images/D22.png","","","","[""Smooth"",""Rough""]"
"","","","","","html-slider-response","107","74000324","0.0-97.0","305xuvc0vs","NaN","<div style=""width:500px;"">
                                <p style=""font-size:50px; font-weight:bold;""
                                ></p>
                                <div style=""width:240px; margin: auto;"">
                                    <img src=""images/D105.png"" style= ""width:200px""alt=""img"">
                                </div>
                            </div>","-87","","0","images/D105.png","","","","[""Smooth"",""Rough""]"
"","","","","","html-slider-response","108","74003834","0.0-98.0","305xuvc0vs","NaN","<div style=""width:500px;"">
                                <p style=""font-size:50px; font-weight:bold;""
                                ></p>
                                <div style=""width:240px; margin: auto;"">
                                    <img src=""images/D52.png"" style= ""width:200px""alt=""img"">
                                </div>
                            </div>","46","","0","images/D52.png","","","","[""Smooth"",""Rough""]"
"","","","","","html-slider-response","109","74006584","0.0-99.0","305xuvc0vs","NaN","<div style=""width:500px;"">
                                <p style=""font-size:50px; font-weight:bold;""
                                ></p>
                                <div style=""width:240px; margin: auto;"">
                                    <img src=""images/D1.png"" style= ""width:200px""alt=""img"">
                                </div>
                            </div>","-84","","0","images/D1.png","","","","[""Smooth"",""Rough""]"
"","","","","","html-slider-response","110","74010402","0.0-100.0","305xuvc0vs","NaN","<div style=""width:500px;"">
                                <p style=""font-size:50px; font-weight:bold;""
                                ></p>
                                <div style=""width:240px; margin: auto;"">
                                    <img src=""images/D92.png"" style= ""width:200px""alt=""img"">
                                </div>
                            </div>","200","","0","images/D92.png","","","","[""Smooth"",""Rough""]"
"","","","","","html-slider-response","111","74014188","0.0-101.0","305xuvc0vs","NaN","<div style=""width:500px;"">
                                <p style=""font-size:50px; font-weight:bold;""
                                ></p>
                                <div style=""width:240px; margin: auto;"">
                                    <img src=""images/D101.png"" style= ""width:200px""alt=""img"">
                                </div>
                            </div>","-71","","0","images/D101.png","","","","[""Smooth"",""Rough""]"
"","","","","","html-slider-response","112","74019155","0.0-102.0","305xuvc0vs","NaN","<div style=""width:500px;"">
                                <p style=""font-size:50px; font-weight:bold;""
                                ></p>
                                <div style=""width:240px; margin: auto;"">
                                    <img src=""images/D104.png"" style= ""width:200px""alt=""img"">
                                </div>
                            </div>","55","","0","images/D104.png","","","","[""Smooth"",""Rough""]"
"","","","","","html-slider-response","113","74021790","0.0-103.0","305xuvc0vs","NaN","<div style=""width:500px;"">
                                <p style=""font-size:50px; font-weight:bold;""
                                ></p>
                                <div style=""width:240px; margin: auto;"">
                                    <img src=""images/D26.png"" style= ""width:200px""alt=""img"">
                                </div>
                            </div>","199","","0","images/D26.png","","","","[""Smooth"",""Rough""]"
"","","","","","html-slider-response","114","74024792","0.0-104.0","305xuvc0vs","NaN","<div style=""width:500px;"">
                                <p style=""font-size:50px; font-weight:bold;""
                                ></p>
                                <div style=""width:240px; margin: auto;"">
                                    <img src=""images/D85.png"" style= ""width:200px""alt=""img"">
                                </div>
                            </div>","72","","0","images/D85.png","","","","[""Smooth"",""Rough""]"
"","","","","","html-slider-response","115","74026870","0.0-105.0","305xuvc0vs","NaN","<div style=""width:500px;"">
                                <p style=""font-size:50px; font-weight:bold;""
                                ></p>
                                <div style=""width:240px; margin: auto;"">
                                    <img src=""images/D75.png"" style= ""width:200px""alt=""img"">
                                </div>
                            </div>","-115","","0","images/D75.png","","","","[""Smooth"",""Rough""]"
"","","","","","html-slider-response","116","74029458","0.0-106.0","305xuvc0vs","NaN","<div style=""width:500px;"">
                                <p style=""font-size:50px; font-weight:bold;""
                                ></p>
                                <div style=""width:240px; margin: auto;"">
                                    <img src=""images/D68.png"" style= ""width:200px""alt=""img"">
                                </div>
                            </div>","48","","0","images/D68.png","","","","[""Smooth"",""Rough""]"
"","","","","","html-slider-response","117","74079428","0.0-107.0","305xuvc0vs","NaN","<div style=""width:500px;"">
                                <p style=""font-size:50px; font-weight:bold;""
                                ></p>
                                <div style=""width:240px; margin: auto;"">
                                    <img src=""images/D83.png"" style= ""width:200px""alt=""img"">
                                </div>
                            </div>","-29","","0","images/D83.png","","","","[""Smooth"",""Rough""]"
"","","","","","html-slider-response","118","74086158","0.0-108.0","305xuvc0vs","NaN","<div style=""width:500px;"">
                                <p style=""font-size:50px; font-weight:bold;""
                                ></p>
                                <div style=""width:240px; margin: auto;"">
                                    <img src=""images/D77.png"" style= ""width:200px""alt=""img"">
                                </div>
                            </div>","47","","0","images/D77.png","","","","[""Smooth"",""Rough""]"
"","","","","","html-slider-response","119","74088391","0.0-109.0","305xuvc0vs","NaN","<div style=""width:500px;"">
                                <p style=""font-size:50px; font-weight:bold;""
                                ></p>
                                <div style=""width:240px; margin: auto;"">
                                    <img src=""images/D8.png"" style= ""width:200px""alt=""img"">
                                </div>
                            </div>","-36","","0","images/D8.png","","","","[""Smooth"",""Rough""]"
"","","","","","html-slider-response","120","74090475","0.0-110.0","305xuvc0vs","NaN","<div style=""width:500px;"">
                                <p style=""font-size:50px; font-weight:bold;""
                                ></p>
                                <div style=""width:240px; margin: auto;"">
                                    <img src=""images/D21.png"" style= ""width:200px""alt=""img"">
                                </div>
                            </div>","48","","0","images/D21.png","","","","[""Smooth"",""Rough""]"
"","","","","","html-slider-response","121","74092724","0.0-111.0","305xuvc0vs","NaN","<div style=""width:500px;"">
                                <p style=""font-size:50px; font-weight:bold;""
                                ></p>
                                <div style=""width:240px; margin: auto;"">
                                    <img src=""images/D80.png"" style= ""width:200px""alt=""img"">
                                </div>
                            </div>","50","","0","images/D80.png","","","","[""Smooth"",""Rough""]"
"","","","","","html-slider-response","122","74097471","0.0-112.0","305xuvc0vs","NaN","<div style=""width:500px;"">
                                <p style=""font-size:50px; font-weight:bold;""
                                ></p>
                                <div style=""width:240px; margin: auto;"">
                                    <img src=""images/D49.png"" style= ""width:200px""alt=""img"">
                                </div>
                            </div>","50","","0","images/D49.png","","","","[""Smooth"",""Rough""]"
"","","","","","html-slider-response","123","74098992","0.0-113.0","305xuvc0vs","NaN","<div style=""width:500px;"">
                                <p style=""font-size:50px; font-weight:bold;""
                                ></p>
                                <div style=""width:240px; margin: auto;"">
                                    <img src=""images/D84.png"" style= ""width:200px""alt=""img"">
                                </div>
                            </div>","57","","0","images/D84.png","","","","[""Smooth"",""Rough""]"
"","","","","","html-slider-response","124","74102607","0.0-114.0","305xuvc0vs","NaN","<div style=""width:500px;"">
                                <p style=""font-size:50px; font-weight:bold;""
                                ></p>
                                <div style=""width:240px; margin: auto;"">
                                    <img src=""images/D111.png"" style= ""width:200px""alt=""img"">
                                </div>
                            </div>","108","","0","images/D111.png","","","","[""Smooth"",""Rough""]"
"","","","","","html-slider-response","125","74105097","0.0-115.0","305xuvc0vs","NaN","<div style=""width:500px;"">
                                <p style=""font-size:50px; font-weight:bold;""
                                ></p>
                                <div style=""width:240px; margin: auto;"">
                                    <img src=""images/D24.png"" style= ""width:200px""alt=""img"">
                                </div>
                            </div>","196","","0","images/D24.png","","","","[""Smooth"",""Rough""]"
"","","","","","html-slider-response","126","74113757","0.0-116.0","305xuvc0vs","NaN","<div style=""width:500px;"">
                                <p style=""font-size:50px; font-weight:bold;""
                                ></p>
                                <div style=""width:240px; margin: auto;"">
                                    <img src=""images/D95.png"" style= ""width:200px""alt=""img"">
                                </div>
                            </div>","67","","0","images/D95.png","","","","[""Smooth"",""Rough""]"
"","","","","","html-slider-response","127","74118609","0.0-117.0","305xuvc0vs","NaN","<div style=""width:500px;"">
                                <p style=""font-size:50px; font-weight:bold;""
                                ></p>
                                <div style=""width:240px; margin: auto;"">
                                    <img src=""images/D11.png"" style= ""width:200px""alt=""img"">
                                </div>
                            </div>","96","","0","images/D11.png","","","","[""Smooth"",""Rough""]"
"","","","","","html-slider-response","128","74122323","0.0-118.0","305xuvc0vs","NaN","<div style=""width:500px;"">
                                <p style=""font-size:50px; font-weight:bold;""
                                ></p>
                                <div style=""width:240px; margin: auto;"">
                                    <img src=""images/D47.png"" style= ""width:200px""alt=""img"">
                                </div>
                            </div>","2","","0","images/D47.png","","","","[""Smooth"",""Rough""]"
"","","","","","html-slider-response","129","74132158","0.0-119.0","305xuvc0vs","NaN","<div style=""width:500px;"">
                                <p style=""font-size:50px; font-weight:bold;""
                                ></p>
                                <div style=""width:240px; margin: auto;"">
                                    <img src=""images/D51.png"" style= ""width:200px""alt=""img"">
                                </div>
                            </div>","-44","","0","images/D51.png","","","","[""Smooth"",""Rough""]"
"","","","","","html-slider-response","130","74134360","0.0-120.0","305xuvc0vs","NaN","<div style=""width:500px;"">
                                <p style=""font-size:50px; font-weight:bold;""
                                ></p>
                                <div style=""width:240px; margin: auto;"">
                                    <img src=""images/D65.png"" style= ""width:200px""alt=""img"">
                                </div>
                            </div>","57","","0","images/D65.png","","","","[""Smooth"",""Rough""]"
"","","","","","html-slider-response","131","74136504","0.0-121.0","305xuvc0vs","NaN","<div style=""width:500px;"">
                                <p style=""font-size:50px; font-weight:bold;""
                                ></p>
                                <div style=""width:240px; margin: auto;"">
                                    <img src=""images/D9.png"" style= ""width:200px""alt=""img"">
                                </div>
                            </div>","124","","0","images/D9.png","","","","[""Smooth"",""Rough""]"
"","","","","","html-slider-response","132","74138404","0.0-122.0","305xuvc0vs","NaN","<div style=""width:500px;"">
                                <p style=""font-size:50px; font-weight:bold;""
                                ></p>
                                <div style=""width:240px; margin: auto;"">
                                    <img src=""images/D94.png"" style= ""width:200px""alt=""img"">
                                </div>
                            </div>","191","","0","images/D94.png","","","","[""Smooth"",""Rough""]"
"","","","","","html-slider-response","133","74141808","0.0-123.0","305xuvc0vs","NaN","<div style=""width:500px;"">
                                <p style=""font-size:50px; font-weight:bold;""
                                ></p>
                                <div style=""width:240px; margin: auto;"">
                                    <img src=""images/D17.png"" style= ""width:200px""alt=""img"">
                                </div>
                            </div>","97","","0","images/D17.png","","","","[""Smooth"",""Rough""]"
"","","","","","html-slider-response","134","74145505","0.0-124.0","305xuvc0vs","NaN","<div style=""width:500px;"">
                                <p style=""font-size:50px; font-weight:bold;""
                                ></p>
                                <div style=""width:240px; margin: auto;"">
                                    <img src=""images/D35.png"" style= ""width:200px""alt=""img"">
                                </div>
                            </div>","-34","","0","images/D35.png","","","","[""Smooth"",""Rough""]"
"","","","","","html-slider-response","135","74147324","0.0-125.0","305xuvc0vs","NaN","<div style=""width:500px;"">
                                <p style=""font-size:50px; font-weight:bold;""
                                ></p>
                                <div style=""width:240px; margin: auto;"">
                                    <img src=""images/D57.png"" style= ""width:200px""alt=""img"">
                                </div>
                            </div>","44","","0","images/D57.png","","","","[""Smooth"",""Rough""]"
"","","","","","html-slider-response","136","74153651","0.0-126.0","305xuvc0vs","NaN","<div style=""width:500px;"">
                                <p style=""font-size:50px; font-weight:bold;""
                                ></p>
                                <div style=""width:240px; margin: auto;"">
                                    <img src=""images/D106.png"" style= ""width:200px""alt=""img"">
                                </div>
                            </div>","-70","","0","images/D106.png","","","","[""Smooth"",""Rough""]"
"","","","","","html-slider-response","137","74156077","0.0-127.0","305xuvc0vs","NaN","<div style=""width:500px;"">
                                <p style=""font-size:50px; font-weight:bold;""
                                ></p>
                                <div style=""width:240px; margin: auto;"">
                                    <img src=""images/D46.png"" style= ""width:200px""alt=""img"">
                                </div>
                            </div>","-76","","0","images/D46.png","","","","[""Smooth"",""Rough""]"
"","","","","","html-slider-response","138","74160153","0.0-128.0","305xuvc0vs","NaN","<div style=""width:500px;"">
                                <p style=""font-size:50px; font-weight:bold;""
                                ></p>
                                <div style=""width:240px; margin: auto;"">
                                    <img src=""images/D64.png"" style= ""width:200px""alt=""img"">
                                </div>
                            </div>","-118","","0","images/D64.png","","","","[""Smooth"",""Rough""]"
"","","","","","html-slider-response","139","74163356","0.0-129.0","305xuvc0vs","NaN","<div style=""width:500px;"">
                                <p style=""font-size:50px; font-weight:bold;""
                                ></p>
                                <div style=""width:240px; margin: auto;"">
                                    <img src=""images/D29.png"" style= ""width:200px""alt=""img"">
                                </div>
                            </div>","89","","0","images/D29.png","","","","[""Smooth"",""Rough""]"
"","","","","","html-slider-response","140","74165428","0.0-130.0","305xuvc0vs","NaN","<div style=""width:500px;"">
                                <p style=""font-size:50px; font-weight:bold;""
                                ></p>
                                <div style=""width:240px; margin: auto;"">
                                    <img src=""images/D103.png"" style= ""width:200px""alt=""img"">
                                </div>
                            </div>","109","","0","images/D103.png","","","","[""Smooth"",""Rough""]"
"","","","","","html-slider-response","141","74166971","0.0-131.0","305xuvc0vs","NaN","<div style=""width:500px;"">
                                <p style=""font-size:50px; font-weight:bold;""
                                ></p>
                                <div style=""width:240px; margin: auto;"">
                                    <img src=""images/D3.png"" style= ""width:200px""alt=""img"">
                                </div>
                            </div>","90","","0","images/D3.png","","","","[""Smooth"",""Rough""]"
"","","","","","html-slider-response","142","74170515","0.0-132.0","305xuvc0vs","NaN","<div style=""width:500px;"">
                                <p style=""font-size:50px; font-weight:bold;""
                                ></p>
                                <div style=""width:240px; margin: auto;"">
                                    <img src=""images/D37.png"" style= ""width:200px""alt=""img"">
                                </div>
                            </div>","-78","","0","images/D37.png","","","","[""Smooth"",""Rough""]"
"","","","","","html-slider-response","143","74175956","0.0-133.0","305xuvc0vs","NaN","<div style=""width:500px;"">
                                <p style=""font-size:50px; font-weight:bold;""
                                ></p>
                                <div style=""width:240px; margin: auto;"">
                                    <img src=""images/D82.png"" style= ""width:200px""alt=""img"">
                                </div>
                            </div>","83","","0","images/D82.png","","","","[""Smooth"",""Rough""]"
"","","","","","html-slider-response","144","74177938","0.0-134.0","305xuvc0vs","NaN","<div style=""width:500px;"">
                                <p style=""font-size:50px; font-weight:bold;""
                                ></p>
                                <div style=""width:240px; margin: auto;"">
                                    <img src=""images/D74.png"" style= ""width:200px""alt=""img"">
                                </div>
                            </div>","-56","","0","images/D74.png","","","","[""Smooth"",""Rough""]"
"","","","","","html-slider-response","145","74179579","0.0-135.0","305xuvc0vs","NaN","<div style=""width:500px;"">
                                <p style=""font-size:50px; font-weight:bold;""
                                ></p>
                                <div style=""width:240px; margin: auto;"">
                                    <img src=""images/D48.png"" style= ""width:200px""alt=""img"">
                                </div>
                            </div>","-67","","0","images/D48.png","","","","[""Smooth"",""Rough""]"
"","","","","","html-slider-response","146","74181433","0.0-136.0","305xuvc0vs","NaN","<div style=""width:500px;"">
                                <p style=""font-size:50px; font-weight:bold;""
                                ></p>
                                <div style=""width:240px; margin: auto;"">
                                    <img src=""images/D14.png"" style= ""width:200px""alt=""img"">
                                </div>
                            </div>","70","","0","images/D14.png","","","","[""Smooth"",""Rough""]"
"","","","","","html-slider-response","147","74183317","0.0-137.0","305xuvc0vs","NaN","<div style=""width:500px;"">
                                <p style=""font-size:50px; font-weight:bold;""
                                ></p>
                                <div style=""width:240px; margin: auto;"">
                                    <img src=""images/D56.png"" style= ""width:200px""alt=""img"">
                                </div>
                            </div>","-86","","0","images/D56.png","","","","[""Smooth"",""Rough""]"
"","","","","","html-slider-response","148","74185840","0.0-138.0","305xuvc0vs","NaN","<div style=""width:500px;"">
                                <p style=""font-size:50px; font-weight:bold;""
                                ></p>
                                <div style=""width:240px; margin: auto;"">
                                    <img src=""images/D20.png"" style= ""width:200px""alt=""img"">
                                </div>
                            </div>","-60","","0","images/D20.png","","","","[""Smooth"",""Rough""]"
"","","","","","html-slider-response","149","74188071","0.0-139.0","305xuvc0vs","NaN","<div style=""width:500px;"">
                                <p style=""font-size:50px; font-weight:bold;""
                                ></p>
                                <div style=""width:240px; margin: auto;"">
                                    <img src=""images/D55.png"" style= ""width:200px""alt=""img"">
                                </div>
                            </div>","55","","0","images/D55.png","","","","[""Smooth"",""Rough""]"
"","","","","","html-button-response","150","74191539","0.0-140.0","305xuvc0vs","2964","You have completed the second block of trials out of six. Please click 'Continue' when you are ready proceed.","0","","","","","","",""
"","","","","","html-button-response","151","74205896","0.0-141.0","305xuvc0vs","14355","In the following trials, you will be asked to rate textures on the scale <b>Non-Random</b> versus <b>Random</b>. Please click 'Continue' when you are ready proceed.","0","","","","","","",""
"","","","","","html-slider-response","152","74211849","0.0-142.0","305xuvc0vs","NaN","<div style=""width:500px;"">
                                <p style=""font-size:50px; font-weight:bold;""
                                ></p>
                                <div style=""width:240px; margin: auto;"">
                                    <img src=""images/D35.png"" style= ""width:200px""alt=""img"">
                                </div>
                            </div>","-200","","0","images/D35.png","","","","[""Non-random"",""Random""]"
"","","","","","html-slider-response","153","74214510","0.0-143.0","305xuvc0vs","NaN","<div style=""width:500px;"">
                                <p style=""font-size:50px; font-weight:bold;""
                                ></p>
                                <div style=""width:240px; margin: auto;"">
                                    <img src=""images/D24.png"" style= ""width:200px""alt=""img"">
                                </div>
                            </div>","66","","0","images/D24.png","","","","[""Non-random"",""Random""]"
"","","","","","html-slider-response","154","74217681","0.0-144.0","305xuvc0vs","NaN","<div style=""width:500px;"">
                                <p style=""font-size:50px; font-weight:bold;""
                                ></p>
                                <div style=""width:240px; margin: auto;"">
                                    <img src=""images/D106.png"" style= ""width:200px""alt=""img"">
                                </div>
                            </div>","61","","0","images/D106.png","","","","[""Non-random"",""Random""]"
"","","","","","html-slider-response","155","74225162","0.0-145.0","305xuvc0vs","NaN","<div style=""width:500px;"">
                                <p style=""font-size:50px; font-weight:bold;""
                                ></p>
                                <div style=""width:240px; margin: auto;"">
                                    <img src=""images/D32.png"" style= ""width:200px""alt=""img"">
                                </div>
                            </div>","51","","0","images/D32.png","","","","[""Non-random"",""Random""]"
"","","","","","html-slider-response","156","74227506","0.0-146.0","305xuvc0vs","NaN","<div style=""width:500px;"">
                                <p style=""font-size:50px; font-weight:bold;""
                                ></p>
                                <div style=""width:240px; margin: auto;"">
                                    <img src=""images/D64.png"" style= ""width:200px""alt=""img"">
                                </div>
                            </div>","-191","","0","images/D64.png","","","","[""Non-random"",""Random""]"
"","","","","","html-slider-response","157","74230249","0.0-147.0","305xuvc0vs","NaN","<div style=""width:500px;"">
                                <p style=""font-size:50px; font-weight:bold;""
                                ></p>
                                <div style=""width:240px; margin: auto;"">
                                    <img src=""images/D26.png"" style= ""width:200px""alt=""img"">
                                </div>
                            </div>","-96","","0","images/D26.png","","","","[""Non-random"",""Random""]"
"","","","","","html-slider-response","158","74232456","0.0-148.0","305xuvc0vs","NaN","<div style=""width:500px;"">
                                <p style=""font-size:50px; font-weight:bold;""
                                ></p>
                                <div style=""width:240px; margin: auto;"">
                                    <img src=""images/D96.png"" style= ""width:200px""alt=""img"">
                                </div>
                            </div>","-105","","0","images/D96.png","","","","[""Non-random"",""Random""]"
"","","","","","html-slider-response","159","74234350","0.0-149.0","305xuvc0vs","NaN","<div style=""width:500px;"">
                                <p style=""font-size:50px; font-weight:bold;""
                                ></p>
                                <div style=""width:240px; margin: auto;"">
                                    <img src=""images/D92.png"" style= ""width:200px""alt=""img"">
                                </div>
                            </div>","107","","0","images/D92.png","","","","[""Non-random"",""Random""]"
"","","","","","html-slider-response","160","74236889","0.0-150.0","305xuvc0vs","NaN","<div style=""width:500px;"">
                                <p style=""font-size:50px; font-weight:bold;""
                                ></p>
                                <div style=""width:240px; margin: auto;"">
                                    <img src=""images/D65.png"" style= ""width:200px""alt=""img"">
                                </div>
                            </div>","-195","","0","images/D65.png","","","","[""Non-random"",""Random""]"
"","","","","","html-slider-response","161","74240027","0.0-151.0","305xuvc0vs","NaN","<div style=""width:500px;"">
                                <p style=""font-size:50px; font-weight:bold;""
                                ></p>
                                <div style=""width:240px; margin: auto;"">
                                    <img src=""images/D14.png"" style= ""width:200px""alt=""img"">
                                </div>
                            </div>","-195","","0","images/D14.png","","","","[""Non-random"",""Random""]"
"","","","","","html-slider-response","162","74242825","0.0-152.0","305xuvc0vs","NaN","<div style=""width:500px;"">
                                <p style=""font-size:50px; font-weight:bold;""
                                ></p>
                                <div style=""width:240px; margin: auto;"">
                                    <img src=""images/D19.png"" style= ""width:200px""alt=""img"">
                                </div>
                            </div>","166","","0","images/D19.png","","","","[""Non-random"",""Random""]"
"","","","","","html-slider-response","163","74245268","0.0-153.0","305xuvc0vs","NaN","<div style=""width:500px;"">
                                <p style=""font-size:50px; font-weight:bold;""
                                ></p>
                                <div style=""width:240px; margin: auto;"">
                                    <img src=""images/D22.png"" style= ""width:200px""alt=""img"">
                                </div>
                            </div>","-192","","0","images/D22.png","","","","[""Non-random"",""Random""]"
"","","","","","html-slider-response","164","74246950","0.0-154.0","305xuvc0vs","NaN","<div style=""width:500px;"">
                                <p style=""font-size:50px; font-weight:bold;""
                                ></p>
                                <div style=""width:240px; margin: auto;"">
                                    <img src=""images/D94.png"" style= ""width:200px""alt=""img"">
                                </div>
                            </div>","-193","","0","images/D94.png","","","","[""Non-random"",""Random""]"
"","","","","","html-slider-response","165","74249764","0.0-155.0","305xuvc0vs","NaN","<div style=""width:500px;"">
                                <p style=""font-size:50px; font-weight:bold;""
                                ></p>
                                <div style=""width:240px; margin: auto;"">
                                    <img src=""images/D4.png"" style= ""width:200px""alt=""img"">
                                </div>
                            </div>","104","","0","images/D4.png","","","","[""Non-random"",""Random""]"
"","","","","","html-slider-response","166","74252255","0.0-156.0","305xuvc0vs","NaN","<div style=""width:500px;"">
                                <p style=""font-size:50px; font-weight:bold;""
                                ></p>
                                <div style=""width:240px; margin: auto;"">
                                    <img src=""images/D37.png"" style= ""width:200px""alt=""img"">
                                </div>
                            </div>","42","","0","images/D37.png","","","","[""Non-random"",""Random""]"
"","","","","","html-slider-response","167","74254279","0.0-157.0","305xuvc0vs","NaN","<div style=""width:500px;"">
                                <p style=""font-size:50px; font-weight:bold;""
                                ></p>
                                <div style=""width:240px; margin: auto;"">
                                    <img src=""images/D20.png"" style= ""width:200px""alt=""img"">
                                </div>
                            </div>","-200","","0","images/D20.png","","","","[""Non-random"",""Random""]"
"","","","","","html-slider-response","168","74256291","0.0-158.0","305xuvc0vs","NaN","<div style=""width:500px;"">
                                <p style=""font-size:50px; font-weight:bold;""
                                ></p>
                                <div style=""width:240px; margin: auto;"">
                                    <img src=""images/D102.png"" style= ""width:200px""alt=""img"">
                                </div>
                            </div>","-195","","0","images/D102.png","","","","[""Non-random"",""Random""]"
"","","","","","html-slider-response","169","74262714","0.0-159.0","305xuvc0vs","NaN","<div style=""width:500px;"">
                                <p style=""font-size:50px; font-weight:bold;""
                                ></p>
                                <div style=""width:240px; margin: auto;"">
                                    <img src=""images/D103.png"" style= ""width:200px""alt=""img"">
                                </div>
                            </div>","-31","","0","images/D103.png","","","","[""Non-random"",""Random""]"
"","","","","","html-slider-response","170","74265825","0.0-160.0","305xuvc0vs","NaN","<div style=""width:500px;"">
                                <p style=""font-size:50px; font-weight:bold;""
                                ></p>
                                <div style=""width:240px; margin: auto;"">
                                    <img src=""images/D21.png"" style= ""width:200px""alt=""img"">
                                </div>
                            </div>","-116","","0","images/D21.png","","","","[""Non-random"",""Random""]"
"","","","","","html-slider-response","171","74308994","0.0-161.0","305xuvc0vs","NaN","<div style=""width:500px;"">
                                <p style=""font-size:50px; font-weight:bold;""
                                ></p>
                                <div style=""width:240px; margin: auto;"">
                                    <img src=""images/D77.png"" style= ""width:200px""alt=""img"">
                                </div>
                            </div>","-80","","0","images/D77.png","","","","[""Non-random"",""Random""]"
"","","","","","html-slider-response","172","74311155","0.0-162.0","305xuvc0vs","NaN","<div style=""width:500px;"">
                                <p style=""font-size:50px; font-weight:bold;""
                                ></p>
                                <div style=""width:240px; margin: auto;"">
                                    <img src=""images/D111.png"" style= ""width:200px""alt=""img"">
                                </div>
                            </div>","89","","0","images/D111.png","","","","[""Non-random"",""Random""]"
"","","","","","html-slider-response","173","74312879","0.0-163.0","305xuvc0vs","NaN","<div style=""width:500px;"">
                                <p style=""font-size:50px; font-weight:bold;""
                                ></p>
                                <div style=""width:240px; margin: auto;"">
                                    <img src=""images/D101.png"" style= ""width:200px""alt=""img"">
                                </div>
                            </div>","-196","","0","images/D101.png","","","","[""Non-random"",""Random""]"
"","","","","","html-slider-response","174","74314180","0.0-164.0","305xuvc0vs","NaN","<div style=""width:500px;"">
                                <p style=""font-size:50px; font-weight:bold;""
                                ></p>
                                <div style=""width:240px; margin: auto;"">
                                    <img src=""images/D48.png"" style= ""width:200px""alt=""img"">
                                </div>
                            </div>","-191","","0","images/D48.png","","","","[""Non-random"",""Random""]"
"","","","","","html-slider-response","175","74315886","0.0-165.0","305xuvc0vs","NaN","<div style=""width:500px;"">
                                <p style=""font-size:50px; font-weight:bold;""
                                ></p>
                                <div style=""width:240px; margin: auto;"">
                                    <img src=""images/D9.png"" style= ""width:200px""alt=""img"">
                                </div>
                            </div>","84","","0","images/D9.png","","","","[""Non-random"",""Random""]"
"","","","","","html-slider-response","176","74317503","0.0-166.0","305xuvc0vs","NaN","<div style=""width:500px;"">
                                <p style=""font-size:50px; font-weight:bold;""
                                ></p>
                                <div style=""width:240px; margin: auto;"">
                                    <img src=""images/D55.png"" style= ""width:200px""alt=""img"">
                                </div>
                            </div>","-114","","0","images/D55.png","","","","[""Non-random"",""Random""]"
"","","","","","html-slider-response","177","74319492","0.0-167.0","305xuvc0vs","NaN","<div style=""width:500px;"">
                                <p style=""font-size:50px; font-weight:bold;""
                                ></p>
                                <div style=""width:240px; margin: auto;"">
                                    <img src=""images/D83.png"" style= ""width:200px""alt=""img"">
                                </div>
                            </div>","-191","","0","images/D83.png","","","","[""Non-random"",""Random""]"
"","","","","","html-slider-response","178","74320673","0.0-168.0","305xuvc0vs","NaN","<div style=""width:500px;"">
                                <p style=""font-size:50px; font-weight:bold;""
                                ></p>
                                <div style=""width:240px; margin: auto;"">
                                    <img src=""images/D52.png"" style= ""width:200px""alt=""img"">
                                </div>
                            </div>","-191","","0","images/D52.png","","","","[""Non-random"",""Random""]"
"","","","","","html-slider-response","179","74322615","0.0-169.0","305xuvc0vs","NaN","<div style=""width:500px;"">
                                <p style=""font-size:50px; font-weight:bold;""
                                ></p>
                                <div style=""width:240px; margin: auto;"">
                                    <img src=""images/D66.png"" style= ""width:200px""alt=""img"">
                                </div>
                            </div>","97","","0","images/D66.png","","","","[""Non-random"",""Random""]"
"","","","","","html-slider-response","180","74324628","0.0-170.0","305xuvc0vs","NaN","<div style=""width:500px;"">
                                <p style=""font-size:50px; font-weight:bold;""
                                ></p>
                                <div style=""width:240px; margin: auto;"">
                                    <img src=""images/D81.png"" style= ""width:200px""alt=""img"">
                                </div>
                            </div>","79","","0","images/D81.png","","","","[""Non-random"",""Random""]"
"","","","","","html-slider-response","181","74326634","0.0-171.0","305xuvc0vs","NaN","<div style=""width:500px;"">
                                <p style=""font-size:50px; font-weight:bold;""
                                ></p>
                                <div style=""width:240px; margin: auto;"">
                                    <img src=""images/D105.png"" style= ""width:200px""alt=""img"">
                                </div>
                            </div>","74","","0","images/D105.png","","","","[""Non-random"",""Random""]"
"","","","","","html-slider-response","182","74329166","0.0-172.0","305xuvc0vs","NaN","<div style=""width:500px;"">
                                <p style=""font-size:50px; font-weight:bold;""
                                ></p>
                                <div style=""width:240px; margin: auto;"">
                                    <img src=""images/D84.png"" style= ""width:200px""alt=""img"">
                                </div>
                            </div>","-67","","0","images/D84.png","","","","[""Non-random"",""Random""]"
"","","","","","html-slider-response","183","74408468","0.0-173.0","305xuvc0vs","NaN","<div style=""width:500px;"">
                                <p style=""font-size:50px; font-weight:bold;""
                                ></p>
                                <div style=""width:240px; margin: auto;"">
                                    <img src=""images/D29.png"" style= ""width:200px""alt=""img"">
                                </div>
                            </div>","97","","0","images/D29.png","","","","[""Non-random"",""Random""]"
"","","","","","html-slider-response","184","74411098","0.0-174.0","305xuvc0vs","NaN","<div style=""width:500px;"">
                                <p style=""font-size:50px; font-weight:bold;""
                                ></p>
                                <div style=""width:240px; margin: auto;"">
                                    <img src=""images/D57.png"" style= ""width:200px""alt=""img"">
                                </div>
                            </div>","-36","","0","images/D57.png","","","","[""Non-random"",""Random""]"
"","","","","","html-slider-response","185","74413053","0.0-175.0","305xuvc0vs","NaN","<div style=""width:500px;"">
                                <p style=""font-size:50px; font-weight:bold;""
                                ></p>
                                <div style=""width:240px; margin: auto;"">
                                    <img src=""images/D82.png"" style= ""width:200px""alt=""img"">
                                </div>
                            </div>","-38","","0","images/D82.png","","","","[""Non-random"",""Random""]"
"","","","","","html-slider-response","186","74415602","0.0-176.0","305xuvc0vs","NaN","<div style=""width:500px;"">
                                <p style=""font-size:50px; font-weight:bold;""
                                ></p>
                                <div style=""width:240px; margin: auto;"">
                                    <img src=""images/D76.png"" style= ""width:200px""alt=""img"">
                                </div>
                            </div>","-113","","0","images/D76.png","","","","[""Non-random"",""Random""]"
"","","","","","html-slider-response","187","74417292","0.0-177.0","305xuvc0vs","NaN","<div style=""width:500px;"">
                                <p style=""font-size:50px; font-weight:bold;""
                                ></p>
                                <div style=""width:240px; margin: auto;"">
                                    <img src=""images/D6.png"" style= ""width:200px""alt=""img"">
                                </div>
                            </div>","-85","","0","images/D6.png","","","","[""Non-random"",""Random""]"
"","","","","","html-slider-response","188","74486631","0.0-178.0","305xuvc0vs","NaN","<div style=""width:500px;"">
                                <p style=""font-size:50px; font-weight:bold;""
                                ></p>
                                <div style=""width:240px; margin: auto;"">
                                    <img src=""images/D85.png"" style= ""width:200px""alt=""img"">
                                </div>
                            </div>","-45","","0","images/D85.png","","","","[""Non-random"",""Random""]"
"","","","","","html-slider-response","189","74489797","0.0-179.0","305xuvc0vs","NaN","<div style=""width:500px;"">
                                <p style=""font-size:50px; font-weight:bold;""
                                ></p>
