"success","timeout","failed_images","failed_audio","failed_video","trial_type","trial_index","time_elapsed","internal_node_id","subject_id","rt","stimulus","response","question_order","slider_start","image_path","practiceTrial","practiceTrialNum","correct","slider_labels"
"true","false","[]","[]","[]","preload","0","264","0.0-0.0","3r25tlnnvc","","","","","","","","","",""
"","","","","","html-button-response","1","3862","0.0-1.0","3r25tlnnvc","3596","<div style='text-align:center; font-size:20px; line-height:25px; width: 1200px;'>
                Welcome to our experiment! <br>
                <br>At the bottom of this screen, you will see a button that says 'Begin Experiment.
                <br>Please only click that button when you are ready to complete the 25 minute experiment in one sitting. <br>
                <br> Once you click that button, it will not be possible to restart the experiment. <br><br>","0","","","","","","",""
"true","","","","","fullscreen","2","6298","0.0-2.0","3r25tlnnvc","1432","","","","","","","","",""
"","","","","","survey-multi-select","3","12628","0.0-3.0","3r25tlnnvc","6324","","{""Consent"":[""<strong>I consent</strong>""]}","[0]","","","","","",""
"","","","","","html-button-response","4","14295","0.0-4.0","3r25tlnnvc","1662","Welcome! <p> This experiment involves two parts: demographic information, followed by the experimental task.<p> It will take about 25 minutes to complete both parts.","0","","","","","","",""
"","","","","","survey-text","5","21828","0.0-5.0","3r25tlnnvc","7529","","{""Age"":""18"",""Gender"":""Male"",""Race/ethnicity"":""White""}","","","","","","",""
"","","","","","html-slider-response","6","37579","0.0-6.0","3r25tlnnvc","15748","
                <div style='text-align:center; height: auto; margin-left=-100px; margin-bottom: -20px; font-size:20px; line-height:5px; width: 1200px;'>
                    <br>During this experiment, you will see a series of textures, one at a time, like the ones below: 
                </div>
                    <br>
                    <br>
                    <img src=""anchoring_visual_textures.png"" alt=""img"" style=""max-width:1200px; margin-left: -10px;"">
                </div>
                <div style=""clear: both;""></div>
                </div>
                    <div style='text-align:center; margin-left=-100px; font-size:20px; line-height:20px; width: 1200px; margin-top: -50px;'>
                    
                    <br> For each texture, you will be asked to rate where you think it falls on each of the response scales with the following endpoints:
                    </div>
                            <div style=""text-align: center; width: 1400px; "">
                                <p style=""font-size:20px; line-height:5px; ""><b>Stripey</b> versus <b>Blobby</b></p>
                                <p style=""font-size:20px; line-height:5px; ""><b>Rectangular</b> versus <b>Rounded</b></p>
                                <p style=""font-size:20px;line-height:5px;""><b>Fine</b> versus <b>Coarse</b></p>
                                <p style=""font-size:20px;line-height:5px; ""><b>Smooth</b> versus <b>Rough</b></p>
                                <p style=""font-size:20px;line-height:5px; ""><b>Non-Random</b> versus <b>Random</b></p>
                                <p style=""font-size:20px;line-height:5px;""><b>Soft</b> versus <b>Hard</b></p>
                            </div>
                            <div style='text-align:center; font-size:20px; line-height:20px; width: 1400px;'>
                    
                    Each trial will include one texture and one response scale. You will be asked to make your rating by sliding the cursor along a slider response scale like the one below.
                    <br><br> Before beginning, please look at the textures and scales. For each scale, think about the texture you associate most with the left endpoint. When you see that texture for that response scale, please click near the left of the scale.
                    <br><br> Now, please think about the texture you associate most with the right endpoint of each scale. When you see that texture for that response scale, please click near the right of the scale. 
                    <br><br> If you think a texture is not strongly associated with either endpoint of the scale, please click near the midpoint of the scale. Please use the full range of the scale. 
                    <br><br> You will be asked to rate each texture for a given scale before moving on to the next scale.
                    <br><br> Please press the 'Continue' button for instructions on how to use the slider.                     <br><br>
                ","3","","0","visual_textures_anchoring.png","true","","",""
"","","","","","html-button-response","7","39328","0.0-7.0","3r25tlnnvc","1747","<div style=""width:1200px; margin-top:-150px;""><p style=""text-align:center; font-size:24px;"">To move the slider, click and drag your cursor to the location of the scale where you would like to make your rating and then let go. <br><br> When you let go of the slider, your response will be recorded and the next trial will begin. <br><br><br>
                We are interested in your initial impressions of each texture and scale, so please go with your first intuition. <br><br>
                Before you begin the experiment, there will be four training trials for you to practice using the scale. <br><br><br><br></div>
                <div style=""width:1200px;""><p style=""text-align:center; font-size:20px;"">When you are ready to start the training trials, please click ""Continue"".</p></div>","0","","","","","","",""
"","","","","","html-slider-response","8","43938","0.0-8.0-0.0","3r25tlnnvc","NaN","<div style=""width:500px;"">
                                <p style=""font-size:25px;"">Please move the slider all the way to the <br> right endpoint of the scale</p>

                                </div>
                            </div>","200","","0","","true","0","true",""
"","","","","","html-button-response","9","45511","0.0-8.0-1.0","3r25tlnnvc","1068","<p align='center'><b>Good job!</b> Click on 'Continue' to proceed.</p>","0","","","","","","",""
"","","","","","html-slider-response","10","48094","0.0-9.0-0.0","3r25tlnnvc","NaN","<div style=""width:500px;"">
                                <p style=""font-size:25px;"">Please move the slider all the way to the <br> left endpoint of the scale</p>

                                </div>
                            </div>","-200","","0","","true","1","true",""
"","","","","","html-button-response","11","49510","0.0-9.0-1.0","3r25tlnnvc","912","<p align='center'><b>Good job!</b> Click on 'Continue' to proceed.</p>","0","","","","","","",""
"","","","","","html-slider-response","12","54172","0.0-10.0-0.0","3r25tlnnvc","NaN","<div style=""width:500px;"">
                                <p style=""font-size:25px;"">Please move the slider halfway between the center and right endpoint of the scale</p>

                                </div>
                            </div>","111","","0","","true","2","false",""
"","","","","","html-button-response","13","58980","0.0-10.0-1.0","3r25tlnnvc","4303","<p align='center'><b>Not quite!</b> The slider was not placed near the instructed locattion. Click on 'Continue' to try again. </p>","0","","","","","","",""
"","","","","","html-slider-response","14","68573","0.0-10.1-0.1","3r25tlnnvc","NaN","<div style=""width:500px;"">
                                <p style=""font-size:25px;"">Please move the slider halfway between the center and right endpoint of the scale</p>

                                </div>
                            </div>","112","","0","","true","2","false",""
"","","","","","html-button-response","15","70329","0.0-10.1-1.1","3r25tlnnvc","1251","<p align='center'><b>Not quite!</b> The slider was not placed near the instructed locattion. Click on 'Continue' to try again. </p>","0","","","","","","",""
"","","","","","html-slider-response","16","72205","0.0-10.2-0.2","3r25tlnnvc","NaN","<div style=""width:500px;"">
                                <p style=""font-size:25px;"">Please move the slider halfway between the center and right endpoint of the scale</p>

                                </div>
                            </div>","-2","","0","","true","2","false",""
"","","","","","html-button-response","17","73443","0.0-10.2-1.2","3r25tlnnvc","734","<p align='center'><b>Not quite!</b> The slider was not placed near the instructed locattion. Click on 'Continue' to try again. </p>","0","","","","","","",""
"","","","","","html-slider-response","18","75473","0.0-10.3-0.3","3r25tlnnvc","NaN","<div style=""width:500px;"">
                                <p style=""font-size:25px;"">Please move the slider halfway between the center and right endpoint of the scale</p>

                                </div>
                            </div>","129","","0","","true","2","false",""
"","","","","","html-button-response","19","79426","0.0-10.3-1.3","3r25tlnnvc","3449","<p align='center'><b>Not quite!</b> The slider was not placed near the instructed locattion. Click on 'Continue' to try again. </p>","0","","","","","","",""
"","","","","","html-slider-response","20","88322","0.0-10.4-0.4","3r25tlnnvc","NaN","<div style=""width:500px;"">
                                <p style=""font-size:25px;"">Please move the slider halfway between the center and right endpoint of the scale</p>

                                </div>
                            </div>","108","","0","","true","2","true",""
"","","","","","html-button-response","21","89795","0.0-10.4-1.4","3r25tlnnvc","968","<p align='center'><b>Good job!</b> Click on 'Continue' to proceed.</p>","0","","","","","","",""
"","","","","","html-slider-response","22","93071","0.0-11.0-0.0","3r25tlnnvc","NaN","<div style=""width:500px;"">
                                <p style=""font-size:25px;"">Please move the slider halfway between the center and left endpoint of the scale</p>

                                </div>
                            </div>","-103","","0","","true","3","true",""
"","","","","","html-button-response","23","94527","0.0-11.0-1.0","3r25tlnnvc","951","<p align='center'><b>Good job!</b> Click on 'Continue' to proceed.</p>","0","","","","","","",""
"","","","","","html-button-response","24","102076","0.0-12.0","3r25tlnnvc","7547","<div style=""width:800px; margin-top:-300px;""><p style=""text-align:center; font-size:22px; line-height:25px;""""> Great job! You've completed the practice trials.</div>
                     <div style=""width:800px; margin-top:-20px;""><p style=""text-align:center""><br><br> In the following trials, you will be asked to rate textures on each scale one-by-one. <br> You will be given opportunities to take breaks when you have completed each block of trials. There are six total blocks of trials. <br><br> Please click continue to begin the main task.<br><br><br> </div>","0","","","","","","",""
"","","","","","html-button-response","25","107225","0.0-13.0","3r25tlnnvc","5149","In the following trials, you will be asked to rate textures on the scale <b>Fine</b> versus <b>Coarse</b>. Please click 'Continue' when you are ready proceed.","0","","","","","","",""
"","","","","","html-slider-response","26","110056","0.0-14.0","3r25tlnnvc","NaN","<div style=""width:500px;"">
                                <p style=""font-size:50px; font-weight:bold;""
                                ></p>
                                <div style=""width:240px; margin: auto;"">
                                    <img src=""images/D26.png"" style= ""width:200px""alt=""img"">
                                </div>
                            </div>","41","","0","images/D26.png","","","","[""Fine"",""Coarse""]"
"","","","","","html-slider-response","27","115006","0.0-15.0","3r25tlnnvc","NaN","<div style=""width:500px;"">
                                <p style=""font-size:50px; font-weight:bold;""
                                ></p>
                                <div style=""width:240px; margin: auto;"">
                                    <img src=""images/D52.png"" style= ""width:200px""alt=""img"">
                                </div>
                            </div>","162","","0","images/D52.png","","","","[""Fine"",""Coarse""]"
"","","","","","html-slider-response","28","119059","0.0-16.0","3r25tlnnvc","NaN","<div style=""width:500px;"">
                                <p style=""font-size:50px; font-weight:bold;""
                                ></p>
                                <div style=""width:240px; margin: auto;"">
                                    <img src=""images/D101.png"" style= ""width:200px""alt=""img"">
                                </div>
                            </div>","-84","","0","images/D101.png","","","","[""Fine"",""Coarse""]"
"","","","","","html-slider-response","29","122727","0.0-17.0","3r25tlnnvc","NaN","<div style=""width:500px;"">
                                <p style=""font-size:50px; font-weight:bold;""
                                ></p>
                                <div style=""width:240px; margin: auto;"">
                                    <img src=""images/D29.png"" style= ""width:200px""alt=""img"">
                                </div>
                            </div>","-174","","0","images/D29.png","","","","[""Fine"",""Coarse""]"
"","","","","","html-slider-response","30","126875","0.0-18.0","3r25tlnnvc","NaN","<div style=""width:500px;"">
                                <p style=""font-size:50px; font-weight:bold;""
                                ></p>
                                <div style=""width:240px; margin: auto;"">
                                    <img src=""images/D18.png"" style= ""width:200px""alt=""img"">
                                </div>
                            </div>","174","","0","images/D18.png","","","","[""Fine"",""Coarse""]"
"","","","","","html-slider-response","31","129371","0.0-19.0","3r25tlnnvc","NaN","<div style=""width:500px;"">
                                <p style=""font-size:50px; font-weight:bold;""
                                ></p>
                                <div style=""width:240px; margin: auto;"">
                                    <img src=""images/D66.png"" style= ""width:200px""alt=""img"">
                                </div>
                            </div>","-38","","0","images/D66.png","","","","[""Fine"",""Coarse""]"
"","","","","","html-slider-response","32","132338","0.0-20.0","3r25tlnnvc","NaN","<div style=""width:500px;"">
                                <p style=""font-size:50px; font-weight:bold;""
                                ></p>
                                <div style=""width:240px; margin: auto;"">
                                    <img src=""images/D48.png"" style= ""width:200px""alt=""img"">
                                </div>
                            </div>","-107","","0","images/D48.png","","","","[""Fine"",""Coarse""]"
"","","","","","html-slider-response","33","135093","0.0-21.0","3r25tlnnvc","NaN","<div style=""width:500px;"">
                                <p style=""font-size:50px; font-weight:bold;""
                                ></p>
                                <div style=""width:240px; margin: auto;"">
                                    <img src=""images/D92.png"" style= ""width:200px""alt=""img"">
                                </div>
                            </div>","145","","0","images/D92.png","","","","[""Fine"",""Coarse""]"
"","","","","","html-slider-response","34","139987","0.0-22.0","3r25tlnnvc","NaN","<div style=""width:500px;"">
                                <p style=""font-size:50px; font-weight:bold;""
                                ></p>
                                <div style=""width:240px; margin: auto;"">
                                    <img src=""images/D106.png"" style= ""width:200px""alt=""img"">
                                </div>
                            </div>","-169","","0","images/D106.png","","","","[""Fine"",""Coarse""]"
"","","","","","html-slider-response","35","142972","0.0-23.0","3r25tlnnvc","NaN","<div style=""width:500px;"">
                                <p style=""font-size:50px; font-weight:bold;""
                                ></p>
                                <div style=""width:240px; margin: auto;"">
                                    <img src=""images/D81.png"" style= ""width:200px""alt=""img"">
                                </div>
                            </div>","178","","0","images/D81.png","","","","[""Fine"",""Coarse""]"
"","","","","","html-slider-response","36","145856","0.0-24.0","3r25tlnnvc","NaN","<div style=""width:500px;"">
                                <p style=""font-size:50px; font-weight:bold;""
                                ></p>
                                <div style=""width:240px; margin: auto;"">
                                    <img src=""images/D25.png"" style= ""width:200px""alt=""img"">
                                </div>
                            </div>","94","","0","images/D25.png","","","","[""Fine"",""Coarse""]"
"","","","","","html-slider-response","37","148322","0.0-25.0","3r25tlnnvc","NaN","<div style=""width:500px;"">
                                <p style=""font-size:50px; font-weight:bold;""
                                ></p>
                                <div style=""width:240px; margin: auto;"">
                                    <img src=""images/D35.png"" style= ""width:200px""alt=""img"">
                                </div>
                            </div>","152","","0","images/D35.png","","","","[""Fine"",""Coarse""]"
"","","","","","html-slider-response","38","150924","0.0-26.0","3r25tlnnvc","NaN","<div style=""width:500px;"">
                                <p style=""font-size:50px; font-weight:bold;""
                                ></p>
                                <div style=""width:240px; margin: auto;"">
                                    <img src=""images/D74.png"" style= ""width:200px""alt=""img"">
                                </div>
                            </div>","185","","0","images/D74.png","","","","[""Fine"",""Coarse""]"
"","","","","","html-slider-response","39","154203","0.0-27.0","3r25tlnnvc","NaN","<div style=""width:500px;"">
                                <p style=""font-size:50px; font-weight:bold;""
                                ></p>
                                <div style=""width:240px; margin: auto;"">
                                    <img src=""images/D83.png"" style= ""width:200px""alt=""img"">
                                </div>
                            </div>","-96","","0","images/D83.png","","","","[""Fine"",""Coarse""]"
"","","","","","html-slider-response","40","156590","0.0-28.0","3r25tlnnvc","NaN","<div style=""width:500px;"">
                                <p style=""font-size:50px; font-weight:bold;""
                                ></p>
                                <div style=""width:240px; margin: auto;"">
                                    <img src=""images/D19.png"" style= ""width:200px""alt=""img"">
                                </div>
                            </div>","-147","","0","images/D19.png","","","","[""Fine"",""Coarse""]"
"","","","","","html-slider-response","41","160220","0.0-29.0","3r25tlnnvc","NaN","<div style=""width:500px;"">
                                <p style=""font-size:50px; font-weight:bold;""
                                ></p>
                                <div style=""width:240px; margin: auto;"">
                                    <img src=""images/D46.png"" style= ""width:200px""alt=""img"">
                                </div>
                            </div>","-9","","0","images/D46.png","","","","[""Fine"",""Coarse""]"
"","","","","","html-slider-response","42","162105","0.0-30.0","3r25tlnnvc","NaN","<div style=""width:500px;"">
                                <p style=""font-size:50px; font-weight:bold;""
                                ></p>
                                <div style=""width:240px; margin: auto;"">
                                    <img src=""images/D68.png"" style= ""width:200px""alt=""img"">
                                </div>
                            </div>","20","","0","images/D68.png","","","","[""Fine"",""Coarse""]"
"","","","","","html-slider-response","43","164125","0.0-31.0","3r25tlnnvc","NaN","<div style=""width:500px;"">
                                <p style=""font-size:50px; font-weight:bold;""
                                ></p>
                                <div style=""width:240px; margin: auto;"">
                                    <img src=""images/D22.png"" style= ""width:200px""alt=""img"">
                                </div>
                            </div>","-31","","0","images/D22.png","","","","[""Fine"",""Coarse""]"
"","","","","","html-slider-response","44","166510","0.0-32.0","3r25tlnnvc","NaN","<div style=""width:500px;"">
                                <p style=""font-size:50px; font-weight:bold;""
                                ></p>
                                <div style=""width:240px; margin: auto;"">
                                    <img src=""images/D94.png"" style= ""width:200px""alt=""img"">
                                </div>
                            </div>","65","","0","images/D94.png","","","","[""Fine"",""Coarse""]"
"","","","","","html-slider-response","45","168827","0.0-33.0","3r25tlnnvc","NaN","<div style=""width:500px;"">
                                <p style=""font-size:50px; font-weight:bold;""
                                ></p>
                                <div style=""width:240px; margin: auto;"">
                                    <img src=""images/D21.png"" style= ""width:200px""alt=""img"">
                                </div>
                            </div>","-141","","0","images/D21.png","","","","[""Fine"",""Coarse""]"
"","","","","","html-slider-response","46","171038","0.0-34.0","3r25tlnnvc","NaN","<div style=""width:500px;"">
                                <p style=""font-size:50px; font-weight:bold;""
                                ></p>
                                <div style=""width:240px; margin: auto;"">
                                    <img src=""images/D78.png"" style= ""width:200px""alt=""img"">
                                </div>
                            </div>","-168","","0","images/D78.png","","","","[""Fine"",""Coarse""]"
"","","","","","html-slider-response","47","173576","0.0-35.0","3r25tlnnvc","NaN","<div style=""width:500px;"">
                                <p style=""font-size:50px; font-weight:bold;""
                                ></p>
                                <div style=""width:240px; margin: auto;"">
                                    <img src=""images/D95.png"" style= ""width:200px""alt=""img"">
                                </div>
                            </div>","146","","0","images/D95.png","","","","[""Fine"",""Coarse""]"
"","","","","","html-slider-response","48","177224","0.0-36.0","3r25tlnnvc","NaN","<div style=""width:500px;"">
                                <p style=""font-size:50px; font-weight:bold;""
                                ></p>
                                <div style=""width:240px; margin: auto;"">
                                    <img src=""images/D82.png"" style= ""width:200px""alt=""img"">
                                </div>
                            </div>","-56","","0","images/D82.png","","","","[""Fine"",""Coarse""]"
"","","","","","html-slider-response","49","179220","0.0-37.0","3r25tlnnvc","NaN","<div style=""width:500px;"">
                                <p style=""font-size:50px; font-weight:bold;""
                                ></p>
                                <div style=""width:240px; margin: auto;"">
                                    <img src=""images/D9.png"" style= ""width:200px""alt=""img"">
                                </div>
                            </div>","160","","0","images/D9.png","","","","[""Fine"",""Coarse""]"
"","","","","","html-slider-response","50","181637","0.0-38.0","3r25tlnnvc","NaN","<div style=""width:500px;"">
                                <p style=""font-size:50px; font-weight:bold;""
                                ></p>
                                <div style=""width:240px; margin: auto;"">
                                    <img src=""images/D87.png"" style= ""width:200px""alt=""img"">
                                </div>
                            </div>","187","","0","images/D87.png","","","","[""Fine"",""Coarse""]"
"","","","","","html-slider-response","51","184108","0.0-39.0","3r25tlnnvc","NaN","<div style=""width:500px;"">
                                <p style=""font-size:50px; font-weight:bold;""
                                ></p>
                                <div style=""width:240px; margin: auto;"">
                                    <img src=""images/D111.png"" style= ""width:200px""alt=""img"">
                                </div>
                            </div>","-128","","0","images/D111.png","","","","[""Fine"",""Coarse""]"
"","","","","","html-slider-response","52","186039","0.0-40.0","3r25tlnnvc","NaN","<div style=""width:500px;"">
                                <p style=""font-size:50px; font-weight:bold;""
                                ></p>
                                <div style=""width:240px; margin: auto;"">
                                    <img src=""images/D51.png"" style= ""width:200px""alt=""img"">
                                </div>
                            </div>","-112","","0","images/D51.png","","","","[""Fine"",""Coarse""]"
"","","","","","html-slider-response","53","187657","0.0-41.0","3r25tlnnvc","NaN","<div style=""width:500px;"">
                                <p style=""font-size:50px; font-weight:bold;""
                                ></p>
                                <div style=""width:240px; margin: auto;"">
                                    <img src=""images/D36.png"" style= ""width:200px""alt=""img"">
                                </div>
                            </div>","126","","0","images/D36.png","","","","[""Fine"",""Coarse""]"
"","","","","","html-slider-response","54","192456","0.0-42.0","3r25tlnnvc","NaN","<div style=""width:500px;"">
                                <p style=""font-size:50px; font-weight:bold;""
                                ></p>
                                <div style=""width:240px; margin: auto;"">
                                    <img src=""images/D102.png"" style= ""width:200px""alt=""img"">
                                </div>
                            </div>","-145","","0","images/D102.png","","","","[""Fine"",""Coarse""]"
"","","","","","html-slider-response","55","194706","0.0-43.0","3r25tlnnvc","NaN","<div style=""width:500px;"">
                                <p style=""font-size:50px; font-weight:bold;""
                                ></p>
                                <div style=""width:240px; margin: auto;"">
                                    <img src=""images/D16.png"" style= ""width:200px""alt=""img"">
                                </div>
                            </div>","-200","","0","images/D16.png","","","","[""Fine"",""Coarse""]"
"","","","","","html-slider-response","56","197923","0.0-44.0","3r25tlnnvc","NaN","<div style=""width:500px;"">
                                <p style=""font-size:50px; font-weight:bold;""
                                ></p>
                                <div style=""width:240px; margin: auto;"">
                                    <img src=""images/D57.png"" style= ""width:200px""alt=""img"">
                                </div>
                            </div>","-182","","0","images/D57.png","","","","[""Fine"",""Coarse""]"
"","","","","","html-slider-response","57","200875","0.0-45.0","3r25tlnnvc","NaN","<div style=""width:500px;"">
                                <p style=""font-size:50px; font-weight:bold;""
                                ></p>
                                <div style=""width:240px; margin: auto;"">
                                    <img src=""images/D105.png"" style= ""width:200px""alt=""img"">
                                </div>
                            </div>","-200","","0","images/D105.png","","","","[""Fine"",""Coarse""]"
"","","","","","html-slider-response","58","203239","0.0-46.0","3r25tlnnvc","NaN","<div style=""width:500px;"">
                                <p style=""font-size:50px; font-weight:bold;""
                                ></p>
                                <div style=""width:240px; margin: auto;"">
                                    <img src=""images/D6.png"" style= ""width:200px""alt=""img"">
                                </div>
                            </div>","-180","","0","images/D6.png","","","","[""Fine"",""Coarse""]"
"","","","","","html-slider-response","59","205207","0.0-47.0","3r25tlnnvc","NaN","<div style=""width:500px;"">
                                <p style=""font-size:50px; font-weight:bold;""
                                ></p>
                                <div style=""width:240px; margin: auto;"">
                                    <img src=""images/D14.png"" style= ""width:200px""alt=""img"">
                                </div>
                            </div>","-136","","0","images/D14.png","","","","[""Fine"",""Coarse""]"
"","","","","","html-slider-response","60","207390","0.0-48.0","3r25tlnnvc","NaN","<div style=""width:500px;"">
                                <p style=""font-size:50px; font-weight:bold;""
                                ></p>
                                <div style=""width:240px; margin: auto;"">
                                    <img src=""images/D103.png"" style= ""width:200px""alt=""img"">
                                </div>
                            </div>","-176","","0","images/D103.png","","","","[""Fine"",""Coarse""]"
"","","","","","html-slider-response","61","209441","0.0-49.0","3r25tlnnvc","NaN","<div style=""width:500px;"">
                                <p style=""font-size:50px; font-weight:bold;""
                                ></p>
                                <div style=""width:240px; margin: auto;"">
                                    <img src=""images/D24.png"" style= ""width:200px""alt=""img"">
                                </div>
                            </div>","-168","","0","images/D24.png","","","","[""Fine"",""Coarse""]"
"","","","","","html-slider-response","62","211654","0.0-50.0","3r25tlnnvc","NaN","<div style=""width:500px;"">
                                <p style=""font-size:50px; font-weight:bold;""
                                ></p>
                                <div style=""width:240px; margin: auto;"">
                                    <img src=""images/D17.png"" style= ""width:200px""alt=""img"">
                                </div>
                            </div>","-146","","0","images/D17.png","","","","[""Fine"",""Coarse""]"
"","","","","","html-slider-response","63","213822","0.0-51.0","3r25tlnnvc","NaN","<div style=""width:500px;"">
                                <p style=""font-size:50px; font-weight:bold;""
                                ></p>
                                <div style=""width:240px; margin: auto;"">
                                    <img src=""images/D56.png"" style= ""width:200px""alt=""img"">
                                </div>
                            </div>","-70","","0","images/D56.png","","","","[""Fine"",""Coarse""]"
"","","","","","html-slider-response","64","216238","0.0-52.0","3r25tlnnvc","NaN","<div style=""width:500px;"">
                                <p style=""font-size:50px; font-weight:bold;""
                                ></p>
                                <div style=""width:240px; margin: auto;"">
                                    <img src=""images/D11.png"" style= ""width:200px""alt=""img"">
                                </div>
                            </div>","-123","","0","images/D11.png","","","","[""Fine"",""Coarse""]"
"","","","","","html-slider-response","65","218236","0.0-53.0","3r25tlnnvc","NaN","<div style=""width:500px;"">
                                <p style=""font-size:50px; font-weight:bold;""
                                ></p>
                                <div style=""width:240px; margin: auto;"">
                                    <img src=""images/D84.png"" style= ""width:200px""alt=""img"">
                                </div>
                            </div>","-200","","0","images/D84.png","","","","[""Fine"",""Coarse""]"
"","","","","","html-slider-response","66","220719","0.0-54.0","3r25tlnnvc","NaN","<div style=""width:500px;"">
                                <p style=""font-size:50px; font-weight:bold;""
                                ></p>
                                <div style=""width:240px; margin: auto;"">
                                    <img src=""images/D34.png"" style= ""width:200px""alt=""img"">
                                </div>
                            </div>","50","","0","images/D34.png","","","","[""Fine"",""Coarse""]"
"","","","","","html-slider-response","67","222891","0.0-55.0","3r25tlnnvc","NaN","<div style=""width:500px;"">
                                <p style=""font-size:50px; font-weight:bold;""
                                ></p>
                                <div style=""width:240px; margin: auto;"">
                                    <img src=""images/D77.png"" style= ""width:200px""alt=""img"">
                                </div>
                            </div>","-200","","0","images/D77.png","","","","[""Fine"",""Coarse""]"
"","","","","","html-slider-response","68","224591","0.0-56.0","3r25tlnnvc","NaN","<div style=""width:500px;"">
                                <p style=""font-size:50px; font-weight:bold;""
                                ></p>
                                <div style=""width:240px; margin: auto;"">
                                    <img src=""images/D49.png"" style= ""width:200px""alt=""img"">
                                </div>
                            </div>","-200","","0","images/D49.png","","","","[""Fine"",""Coarse""]"
"","","","","","html-slider-response","69","226789","0.0-57.0","3r25tlnnvc","NaN","<div style=""width:500px;"">
                                <p style=""font-size:50px; font-weight:bold;""
                                ></p>
                                <div style=""width:240px; margin: auto;"">
                                    <img src=""images/D79.png"" style= ""width:200px""alt=""img"">
                                </div>
                            </div>","-181","","0","images/D79.png","","","","[""Fine"",""Coarse""]"
"","","","","","html-slider-response","70","229174","0.0-58.0","3r25tlnnvc","NaN","<div style=""width:500px;"">
                                <p style=""font-size:50px; font-weight:bold;""
                                ></p>
                                <div style=""width:240px; margin: auto;"">
                                    <img src=""images/D64.png"" style= ""width:200px""alt=""img"">
                                </div>
                            </div>","74","","0","images/D64.png","","","","[""Fine"",""Coarse""]"
"","","","","","html-slider-response","71","231058","0.0-59.0","3r25tlnnvc","NaN","<div style=""width:500px;"">
                                <p style=""font-size:50px; font-weight:bold;""
                                ></p>
                                <div style=""width:240px; margin: auto;"">
                                    <img src=""images/D32.png"" style= ""width:200px""alt=""img"">
                                </div>
                            </div>","-200","","0","images/D32.png","","","","[""Fine"",""Coarse""]"
"","","","","","html-slider-response","72","234688","0.0-60.0","3r25tlnnvc","NaN","<div style=""width:500px;"">
                                <p style=""font-size:50px; font-weight:bold;""
                                ></p>
                                <div style=""width:240px; margin: auto;"">
                                    <img src=""images/D47.png"" style= ""width:200px""alt=""img"">
                                </div>
                            </div>","35","","0","images/D47.png","","","","[""Fine"",""Coarse""]"
"","","","","","html-slider-response","73","236555","0.0-61.0","3r25tlnnvc","NaN","<div style=""width:500px;"">
                                <p style=""font-size:50px; font-weight:bold;""
                                ></p>
                                <div style=""width:240px; margin: auto;"">
                                    <img src=""images/D55.png"" style= ""width:200px""alt=""img"">
                                </div>
                            </div>","-161","","0","images/D55.png","","","","[""Fine"",""Coarse""]"
"","","","","","html-slider-response","74","238504","0.0-62.0","3r25tlnnvc","NaN","<div style=""width:500px;"">
                                <p style=""font-size:50px; font-weight:bold;""
                                ></p>
                                <div style=""width:240px; margin: auto;"">
                                    <img src=""images/D8.png"" style= ""width:200px""alt=""img"">
                                </div>
                            </div>","86","","0","images/D8.png","","","","[""Fine"",""Coarse""]"
"","","","","","html-slider-response","75","240540","0.0-63.0","3r25tlnnvc","NaN","<div style=""width:500px;"">
                                <p style=""font-size:50px; font-weight:bold;""
                                ></p>
                                <div style=""width:240px; margin: auto;"">
                                    <img src=""images/D65.png"" style= ""width:200px""alt=""img"">
                                </div>
                            </div>","200","","0","images/D65.png","","","","[""Fine"",""Coarse""]"
"","","","","","html-slider-response","76","242353","0.0-64.0","3r25tlnnvc","NaN","<div style=""width:500px;"">
                                <p style=""font-size:50px; font-weight:bold;""
                                ></p>
                                <div style=""width:240px; margin: auto;"">
                                    <img src=""images/D75.png"" style= ""width:200px""alt=""img"">
                                </div>
                            </div>","200","","0","images/D75.png","","","","[""Fine"",""Coarse""]"
"","","","","","html-slider-response","77","244758","0.0-65.0","3r25tlnnvc","NaN","<div style=""width:500px;"">
                                <p style=""font-size:50px; font-weight:bold;""
                                ></p>
                                <div style=""width:240px; margin: auto;"">
                                    <img src=""images/D3.png"" style= ""width:200px""alt=""img"">
                                </div>
                            </div>","-174","","0","images/D3.png","","","","[""Fine"",""Coarse""]"
"","","","","","html-slider-response","78","246938","0.0-66.0","3r25tlnnvc","NaN","<div style=""width:500px;"">
                                <p style=""font-size:50px; font-weight:bold;""
                                ></p>
                                <div style=""width:240px; margin: auto;"">
                                    <img src=""images/D37.png"" style= ""width:200px""alt=""img"">
                                </div>
                            </div>","81","","0","images/D37.png","","","","[""Fine"",""Coarse""]"
"","","","","","html-slider-response","79","248970","0.0-67.0","3r25tlnnvc","NaN","<div style=""width:500px;"">
                                <p style=""font-size:50px; font-weight:bold;""
                                ></p>
                                <div style=""width:240px; margin: auto;"">
                                    <img src=""images/D76.png"" style= ""width:200px""alt=""img"">
                                </div>
                            </div>","-131","","0","images/D76.png","","","","[""Fine"",""Coarse""]"
"","","","","","html-slider-response","80","251188","0.0-68.0","3r25tlnnvc","NaN","<div style=""width:500px;"">
                                <p style=""font-size:50px; font-weight:bold;""
                                ></p>
                                <div style=""width:240px; margin: auto;"">
                                    <img src=""images/D1.png"" style= ""width:200px""alt=""img"">
                                </div>
                            </div>","200","","0","images/D1.png","","","","[""Fine"",""Coarse""]"
"","","","","","html-slider-response","81","253343","0.0-69.0","3r25tlnnvc","NaN","<div style=""width:500px;"">
                                <p style=""font-size:50px; font-weight:bold;""
                                ></p>
                                <div style=""width:240px; margin: auto;"">
                                    <img src=""images/D4.png"" style= ""width:200px""alt=""img"">
                                </div>
                            </div>","-200","","0","images/D4.png","","","","[""Fine"",""Coarse""]"
"","","","","","html-slider-response","82","255624","0.0-70.0","3r25tlnnvc","NaN","<div style=""width:500px;"">
                                <p style=""font-size:50px; font-weight:bold;""
                                ></p>
                                <div style=""width:240px; margin: auto;"">
                                    <img src=""images/D85.png"" style= ""width:200px""alt=""img"">
                                </div>
                            </div>","-154","","0","images/D85.png","","","","[""Fine"",""Coarse""]"
"","","","","","html-slider-response","83","257903","0.0-71.0","3r25tlnnvc","NaN","<div style=""width:500px;"">
                                <p style=""font-size:50px; font-weight:bold;""
                                ></p>
                                <div style=""width:240px; margin: auto;"">
                                    <img src=""images/D96.png"" style= ""width:200px""alt=""img"">
                                </div>
                            </div>","96","","0","images/D96.png","","","","[""Fine"",""Coarse""]"
"","","","","","html-slider-response","84","260053","0.0-72.0","3r25tlnnvc","NaN","<div style=""width:500px;"">
                                <p style=""font-size:50px; font-weight:bold;""
                                ></p>
                                <div style=""width:240px; margin: auto;"">
                                    <img src=""images/D80.png"" style= ""width:200px""alt=""img"">
                                </div>
                            </div>","-200","","0","images/D80.png","","","","[""Fine"",""Coarse""]"
"","","","","","html-slider-response","85","263770","0.0-73.0","3r25tlnnvc","NaN","<div style=""width:500px;"">
                                <p style=""font-size:50px; font-weight:bold;""
                                ></p>
                                <div style=""width:240px; margin: auto;"">
                                    <img src=""images/D20.png"" style= ""width:200px""alt=""img"">
                                </div>
                            </div>","102","","0","images/D20.png","","","","[""Fine"",""Coarse""]"
"","","","","","html-slider-response","86","267570","0.0-74.0","3r25tlnnvc","NaN","<div style=""width:500px;"">
                                <p style=""font-size:50px; font-weight:bold;""
                                ></p>
                                <div style=""width:240px; margin: auto;"">
                                    <img src=""images/D104.png"" style= ""width:200px""alt=""img"">
                                </div>
                            </div>","-166","","0","images/D104.png","","","","[""Fine"",""Coarse""]"
"","","","","","html-slider-response","87","269488","0.0-75.0","3r25tlnnvc","NaN","<div style=""width:500px;"">
                                <p style=""font-size:50px; font-weight:bold;""
                                ></p>
                                <div style=""width:240px; margin: auto;"">
                                    <img src=""images/D53.png"" style= ""width:200px""alt=""img"">
                                </div>
                            </div>","-200","","0","images/D53.png","","","","[""Fine"",""Coarse""]"
"","","","","","html-button-response","88","273377","0.0-76.0","3r25tlnnvc","3385","You have completed the first block of trials out of six. Please click 'Continue' when you are ready proceed.","0","","","","","","",""
"","","","","","html-button-response","89","275061","0.0-77.0","3r25tlnnvc","1682","In the following trials, you will be asked to rate textures on the scale <b>Rectangular</b> versus <b>Rounded</b>. Please click 'Continue' when you are ready proceed.","0","","","","","","",""
"","","","","","html-slider-response","90","278771","0.0-78.0","3r25tlnnvc","NaN","<div style=""width:500px;"">
                                <p style=""font-size:50px; font-weight:bold;""
                                ></p>
                                <div style=""width:240px; margin: auto;"">
                                    <img src=""images/D8.png"" style= ""width:200px""alt=""img"">
                                </div>
                            </div>","-57","","0","images/D8.png","","","","[""Rectangular"",""Rounded""]"
"","","","","","html-slider-response","91","281972","0.0-79.0","3r25tlnnvc","NaN","<div style=""width:500px;"">
                                <p style=""font-size:50px; font-weight:bold;""
                                ></p>
                                <div style=""width:240px; margin: auto;"">
                                    <img src=""images/D77.png"" style= ""width:200px""alt=""img"">
                                </div>
                            </div>","-157","","0","images/D77.png","","","","[""Rectangular"",""Rounded""]"
"","","","","","html-slider-response","92","284759","0.0-80.0","3r25tlnnvc","NaN","<div style=""width:500px;"">
                                <p style=""font-size:50px; font-weight:bold;""
                                ></p>
                                <div style=""width:240px; margin: auto;"">
                                    <img src=""images/D106.png"" style= ""width:200px""alt=""img"">
                                </div>
                            </div>","-186","","0","images/D106.png","","","","[""Rectangular"",""Rounded""]"
"","","","","","html-slider-response","93","287008","0.0-81.0","3r25tlnnvc","NaN","<div style=""width:500px;"">
                                <p style=""font-size:50px; font-weight:bold;""
                                ></p>
                                <div style=""width:240px; margin: auto;"">
                                    <img src=""images/D26.png"" style= ""width:200px""alt=""img"">
                                </div>
                            </div>","-200","","0","images/D26.png","","","","[""Rectangular"",""Rounded""]"
"","","","","","html-slider-response","94","289424","0.0-82.0","3r25tlnnvc","NaN","<div style=""width:500px;"">
                                <p style=""font-size:50px; font-weight:bold;""
                                ></p>
                                <div style=""width:240px; margin: auto;"">
                                    <img src=""images/D32.png"" style= ""width:200px""alt=""img"">
                                </div>
                            </div>","200","","0","images/D32.png","","","","[""Rectangular"",""Rounded""]"
"","","","","","html-slider-response","95","292104","0.0-83.0","3r25tlnnvc","NaN","<div style=""width:500px;"">
                                <p style=""font-size:50px; font-weight:bold;""
                                ></p>
                                <div style=""width:240px; margin: auto;"">
                                    <img src=""images/D16.png"" style= ""width:200px""alt=""img"">
                                </div>
                            </div>","-54","","0","images/D16.png","","","","[""Rectangular"",""Rounded""]"
"","","","","","html-slider-response","96","294219","0.0-84.0","3r25tlnnvc","NaN","<div style=""width:500px;"">
                                <p style=""font-size:50px; font-weight:bold;""
                                ></p>
                                <div style=""width:240px; margin: auto;"">
                                    <img src=""images/D19.png"" style= ""width:200px""alt=""img"">
                                </div>
                            </div>","34","","0","images/D19.png","","","","[""Rectangular"",""Rounded""]"
"","","","","","html-slider-response","97","298538","0.0-85.0","3r25tlnnvc","NaN","<div style=""width:500px;"">
                                <p style=""font-size:50px; font-weight:bold;""
                                ></p>
                                <div style=""width:240px; margin: auto;"">
                                    <img src=""images/D46.png"" style= ""width:200px""alt=""img"">
                                </div>
                            </div>","5","","0","images/D46.png","","","","[""Rectangular"",""Rounded""]"
"","","","","","html-slider-response","98","301238","0.0-86.0","3r25tlnnvc","NaN","<div style=""width:500px;"">
                                <p style=""font-size:50px; font-weight:bold;""
                                ></p>
                                <div style=""width:240px; margin: auto;"">
                                    <img src=""images/D82.png"" style= ""width:200px""alt=""img"">
                                </div>
                            </div>","17","","0","images/D82.png","","","","[""Rectangular"",""Rounded""]"
"","","","","","html-slider-response","99","303254","0.0-87.0","3r25tlnnvc","NaN","<div style=""width:500px;"">
                                <p style=""font-size:50px; font-weight:bold;""
                                ></p>
                                <div style=""width:240px; margin: auto;"">
                                    <img src=""images/D64.png"" style= ""width:200px""alt=""img"">
                                </div>
                            </div>","-200","","0","images/D64.png","","","","[""Rectangular"",""Rounded""]"
"","","","","","html-slider-response","100","306003","0.0-88.0","3r25tlnnvc","NaN","<div style=""width:500px;"">
                                <p style=""font-size:50px; font-weight:bold;""
                                ></p>
                                <div style=""width:240px; margin: auto;"">
                                    <img src=""images/D35.png"" style= ""width:200px""alt=""img"">
                                </div>
                            </div>","200","","0","images/D35.png","","","","[""Rectangular"",""Rounded""]"
"","","","","","html-slider-response","101","308442","0.0-89.0","3r25tlnnvc","NaN","<div style=""width:500px;"">
                                <p style=""font-size:50px; font-weight:bold;""
                                ></p>
                                <div style=""width:240px; margin: auto;"">
                                    <img src=""images/D20.png"" style= ""width:200px""alt=""img"">
                                </div>
                            </div>","-55","","0","images/D20.png","","","","[""Rectangular"",""Rounded""]"
"","","","","","html-slider-response","102","312904","0.0-90.0","3r25tlnnvc","NaN","<div style=""width:500px;"">
                                <p style=""font-size:50px; font-weight:bold;""
                                ></p>
                                <div style=""width:240px; margin: auto;"">
                                    <img src=""images/D85.png"" style= ""width:200px""alt=""img"">
                                </div>
                            </div>","-34","","0","images/D85.png","","","","[""Rectangular"",""Rounded""]"
"","","","","","html-slider-response","103","314655","0.0-91.0","3r25tlnnvc","NaN","<div style=""width:500px;"">
                                <p style=""font-size:50px; font-weight:bold;""
                                ></p>
                                <div style=""width:240px; margin: auto;"">
                                    <img src=""images/D96.png"" style= ""width:200px""alt=""img"">
                                </div>
                            </div>","-200","","0","images/D96.png","","","","[""Rectangular"",""Rounded""]"
"","","","","","html-slider-response","104","317587","0.0-92.0","3r25tlnnvc","NaN","<div style=""width:500px;"">
                                <p style=""font-size:50px; font-weight:bold;""
                                ></p>
                                <div style=""width:240px; margin: auto;"">
                                    <img src=""images/D11.png"" style= ""width:200px""alt=""img"">
                                </div>
                            </div>","-26","","0","images/D11.png","","","","[""Rectangular"",""Rounded""]"
"","","","","","html-slider-response","105","319905","0.0-93.0","3r25tlnnvc","NaN","<div style=""width:500px;"">
                                <p style=""font-size:50px; font-weight:bold;""
                                ></p>
                                <div style=""width:240px; margin: auto;"">
                                    <img src=""images/D65.png"" style= ""width:200px""alt=""img"">
                                </div>
                            </div>","-66","","0","images/D65.png","","","","[""Rectangular"",""Rounded""]"
"","","","","","html-slider-response","106","321820","0.0-94.0","3r25tlnnvc","NaN","<div style=""width:500px;"">
                                <p style=""font-size:50px; font-weight:bold;""
                                ></p>
                                <div style=""width:240px; margin: auto;"">
                                    <img src=""images/D81.png"" style= ""width:200px""alt=""img"">
                                </div>
                            </div>","42","","0","images/D81.png","","","","[""Rectangular"",""Rounded""]"
"","","","","","html-slider-response","107","323419","0.0-95.0","3r25tlnnvc","NaN","<div style=""width:500px;"">
                                <p style=""font-size:50px; font-weight:bold;""
                                ></p>
                                <div style=""width:240px; margin: auto;"">
                                    <img src=""images/D3.png"" style= ""width:200px""alt=""img"">
                                </div>
                            </div>","200","","0","images/D3.png","","","","[""Rectangular"",""Rounded""]"
"","","","","","html-slider-response","108","326118","0.0-96.0","3r25tlnnvc","NaN","<div style=""width:500px;"">
                                <p style=""font-size:50px; font-weight:bold;""
                                ></p>
                                <div style=""width:240px; margin: auto;"">
                                    <img src=""images/D79.png"" style= ""width:200px""alt=""img"">
                                </div>
                            </div>","-48","","0","images/D79.png","","","","[""Rectangular"",""Rounded""]"
"","","","","","html-slider-response","109","328320","0.0-97.0","3r25tlnnvc","NaN","<div style=""width:500px;"">
                                <p style=""font-size:50px; font-weight:bold;""
                                ></p>
                                <div style=""width:240px; margin: auto;"">
                                    <img src=""images/D34.png"" style= ""width:200px""alt=""img"">
                                </div>
                            </div>","184","","0","images/D34.png","","","","[""Rectangular"",""Rounded""]"
"","","","","","html-slider-response","110","330107","0.0-98.0","3r25tlnnvc","NaN","<div style=""width:500px;"">
                                <p style=""font-size:50px; font-weight:bold;""
                                ></p>
                                <div style=""width:240px; margin: auto;"">
                                    <img src=""images/D74.png"" style= ""width:200px""alt=""img"">
                                </div>
                            </div>","200","","0","images/D74.png","","","","[""Rectangular"",""Rounded""]"
"","","","","","html-slider-response","111","332487","0.0-99.0","3r25tlnnvc","NaN","<div style=""width:500px;"">
                                <p style=""font-size:50px; font-weight:bold;""
                                ></p>
                                <div style=""width:240px; margin: auto;"">
                                    <img src=""images/D21.png"" style= ""width:200px""alt=""img"">
                                </div>
                            </div>","-86","","0","images/D21.png","","","","[""Rectangular"",""Rounded""]"
"","","","","","html-slider-response","112","334170","0.0-100.0","3r25tlnnvc","NaN","<div style=""width:500px;"">
                                <p style=""font-size:50px; font-weight:bold;""
                                ></p>
                                <div style=""width:240px; margin: auto;"">
                                    <img src=""images/D48.png"" style= ""width:200px""alt=""img"">
                                </div>
                            </div>","200","","0","images/D48.png","","","","[""Rectangular"",""Rounded""]"
"","","","","","html-slider-response","113","336036","0.0-101.0","3r25tlnnvc","NaN","<div style=""width:500px;"">
                                <p style=""font-size:50px; font-weight:bold;""
                                ></p>
                                <div style=""width:240px; margin: auto;"">
                                    <img src=""images/D94.png"" style= ""width:200px""alt=""img"">
                                </div>
                            </div>","-200","","0","images/D94.png","","","","[""Rectangular"",""Rounded""]"
"","","","","","html-slider-response","114","338472","0.0-102.0","3r25tlnnvc","NaN","<div style=""width:500px;"">
                                <p style=""font-size:50px; font-weight:bold;""
                                ></p>
                                <div style=""width:240px; margin: auto;"">
                                    <img src=""images/D36.png"" style= ""width:200px""alt=""img"">
                                </div>
                            </div>","60","","0","images/D36.png","","","","[""Rectangular"",""Rounded""]"
"","","","","","html-slider-response","115","342137","0.0-103.0","3r25tlnnvc","NaN","<div style=""width:500px;"">
                                <p style=""font-size:50px; font-weight:bold;""
                                ></p>
                                <div style=""width:240px; margin: auto;"">
                                    <img src=""images/D53.png"" style= ""width:200px""alt=""img"">
                                </div>
                            </div>","-114","","0","images/D53.png","","","","[""Rectangular"",""Rounded""]"
"","","","","","html-slider-response","116","344605","0.0-104.0","3r25tlnnvc","NaN","<div style=""width:500px;"">
                                <p style=""font-size:50px; font-weight:bold;""
                                ></p>
                                <div style=""width:240px; margin: auto;"">
                                    <img src=""images/D6.png"" style= ""width:200px""alt=""img"">
                                </div>
                            </div>","-154","","0","images/D6.png","","","","[""Rectangular"",""Rounded""]"
"","","","","","html-slider-response","117","346370","0.0-105.0","3r25tlnnvc","NaN","<div style=""width:500px;"">
                                <p style=""font-size:50px; font-weight:bold;""
                                ></p>
                                <div style=""width:240px; margin: auto;"">
                                    <img src=""images/D95.png"" style= ""width:200px""alt=""img"">
                                </div>
                            </div>","-200","","0","images/D95.png","","","","[""Rectangular"",""Rounded""]"
"","","","","","html-slider-response","118","348153","0.0-106.0","3r25tlnnvc","NaN","<div style=""width:500px;"">
                                <p style=""font-size:50px; font-weight:bold;""
                                ></p>
                                <div style=""width:240px; margin: auto;"">
                                    <img src=""images/D102.png"" style= ""width:200px""alt=""img"">
                                </div>
                            </div>","200","","0","images/D102.png","","","","[""Rectangular"",""Rounded""]"
"","","","","","html-slider-response","119","351174","0.0-107.0","3r25tlnnvc","NaN","<div style=""width:500px;"">
                                <p style=""font-size:50px; font-weight:bold;""
                                ></p>
                                <div style=""width:240px; margin: auto;"">
                                    <img src=""images/D47.png"" style= ""width:200px""alt=""img"">
                                </div>
                            </div>","-121","","0","images/D47.png","","","","[""Rectangular"",""Rounded""]"
"","","","","","html-slider-response","120","354186","0.0-108.0","3r25tlnnvc","NaN","<div style=""width:500px;"">
                                <p style=""font-size:50px; font-weight:bold;""
                                ></p>
                                <div style=""width:240px; margin: auto;"">
                                    <img src=""images/D25.png"" style= ""width:200px""alt=""img"">
                                </div>
                            </div>","-200","","0","images/D25.png","","","","[""Rectangular"",""Rounded""]"
"","","","","","html-slider-response","121","356442","0.0-109.0","3r25tlnnvc","NaN","<div style=""width:500px;"">
                                <p style=""font-size:50px; font-weight:bold;""
                                ></p>
                                <div style=""width:240px; margin: auto;"">
                                    <img src=""images/D84.png"" style= ""width:200px""alt=""img"">
                                </div>
                            </div>","63","","0","images/D84.png","","","","[""Rectangular"",""Rounded""]"
"","","","","","html-slider-response","122","359018","0.0-110.0","3r25tlnnvc","NaN","<div style=""width:500px;"">
                                <p style=""font-size:50px; font-weight:bold;""
                                ></p>
                                <div style=""width:240px; margin: auto;"">
                                    <img src=""images/D14.png"" style= ""width:200px""alt=""img"">
                                </div>
                            </div>","68","","0","images/D14.png","","","","[""Rectangular"",""Rounded""]"
"","","","","","html-slider-response","123","362556","0.0-111.0","3r25tlnnvc","NaN","<div style=""width:500px;"">
                                <p style=""font-size:50px; font-weight:bold;""
                                ></p>
                                <div style=""width:240px; margin: auto;"">
                                    <img src=""images/D68.png"" style= ""width:200px""alt=""img"">
                                </div>
                            </div>","36","","0","images/D68.png","","","","[""Rectangular"",""Rounded""]"
"","","","","","html-slider-response","124","364419","0.0-112.0","3r25tlnnvc","NaN","<div style=""width:500px;"">
                                <p style=""font-size:50px; font-weight:bold;""
                                ></p>
                                <div style=""width:240px; margin: auto;"">
                                    <img src=""images/D104.png"" style= ""width:200px""alt=""img"">
                                </div>
                            </div>","-12","","0","images/D104.png","","","","[""Rectangular"",""Rounded""]"
"","","","","","html-slider-response","125","366088","0.0-113.0","3r25tlnnvc","NaN","<div style=""width:500px;"">
                                <p style=""font-size:50px; font-weight:bold;""
                                ></p>
                                <div style=""width:240px; margin: auto;"">
                                    <img src=""images/D4.png"" style= ""width:200px""alt=""img"">
                                </div>
                            </div>","14","","0","images/D4.png","","","","[""Rectangular"",""Rounded""]"
"","","","","","html-slider-response","126","368370","0.0-114.0","3r25tlnnvc","NaN","<div style=""width:500px;"">
                                <p style=""font-size:50px; font-weight:bold;""
                                ></p>
                                <div style=""width:240px; margin: auto;"">
                                    <img src=""images/D52.png"" style= ""width:200px""alt=""img"">
                                </div>
                            </div>","102","","0","images/D52.png","","","","[""Rectangular"",""Rounded""]"
"","","","","","html-slider-response","127","372220","0.0-115.0","3r25tlnnvc","NaN","<div style=""width:500px;"">
                                <p style=""font-size:50px; font-weight:bold;""
                                ></p>
                                <div style=""width:240px; margin: auto;"">
                                    <img src=""images/D83.png"" style= ""width:200px""alt=""img"">
                                </div>
                            </div>","26","","0","images/D83.png","","","","[""Rectangular"",""Rounded""]"
"","","","","","html-slider-response","128","374137","0.0-116.0","3r25tlnnvc","NaN","<div style=""width:500px;"">
                                <p style=""font-size:50px; font-weight:bold;""
                                ></p>
                                <div style=""width:240px; margin: auto;"">
                                    <img src=""images/D76.png"" style= ""width:200px""alt=""img"">
                                </div>
                            </div>","34","","0","images/D76.png","","","","[""Rectangular"",""Rounded""]"
"","","","","","html-slider-response","129","376775","0.0-117.0","3r25tlnnvc","NaN","<div style=""width:500px;"">
                                <p style=""font-size:50px; font-weight:bold;""
                                ></p>
                                <div style=""width:240px; margin: auto;"">
                                    <img src=""images/D103.png"" style= ""width:200px""alt=""img"">
                                </div>
                            </div>","-78","","0","images/D103.png","","","","[""Rectangular"",""Rounded""]"
"","","","","","html-slider-response","130","378286","0.0-118.0","3r25tlnnvc","NaN","<div style=""width:500px;"">
                                <p style=""font-size:50px; font-weight:bold;""
                                ></p>
                                <div style=""width:240px; margin: auto;"">
                                    <img src=""images/D101.png"" style= ""width:200px""alt=""img"">
                                </div>
                            </div>","200","","0","images/D101.png","","","","[""Rectangular"",""Rounded""]"
"","","","","","html-slider-response","131","382304","0.0-119.0","3r25tlnnvc","NaN","<div style=""width:500px;"">
                                <p style=""font-size:50px; font-weight:bold;""
                                ></p>
                                <div style=""width:240px; margin: auto;"">
                                    <img src=""images/D51.png"" style= ""width:200px""alt=""img"">
                                </div>
                            </div>","-11","","0","images/D51.png","","","","[""Rectangular"",""Rounded""]"
"","","","","","html-slider-response","132","384337","0.0-120.0","3r25tlnnvc","NaN","<div style=""width:500px;"">
                                <p style=""font-size:50px; font-weight:bold;""
                                ></p>
                                <div style=""width:240px; margin: auto;"">
                                    <img src=""images/D49.png"" style= ""width:200px""alt=""img"">
                                </div>
                            </div>","-14","","0","images/D49.png","","","","[""Rectangular"",""Rounded""]"
"","","","","","html-slider-response","133","386252","0.0-121.0","3r25tlnnvc","NaN","<div style=""width:500px;"">
                                <p style=""font-size:50px; font-weight:bold;""
                                ></p>
                                <div style=""width:240px; margin: auto;"">
                                    <img src=""images/D55.png"" style= ""width:200px""alt=""img"">
                                </div>
                            </div>","31","","0","images/D55.png","","","","[""Rectangular"",""Rounded""]"
"","","","","","html-slider-response","134","388136","0.0-122.0","3r25tlnnvc","NaN","<div style=""width:500px;"">
                                <p style=""font-size:50px; font-weight:bold;""
                                ></p>
                                <div style=""width:240px; margin: auto;"">
                                    <img src=""images/D66.png"" style= ""width:200px""alt=""img"">
                                </div>
                            </div>","200","","0","images/D66.png","","","","[""Rectangular"",""Rounded""]"
"","","","","","html-slider-response","135","391057","0.0-123.0","3r25tlnnvc","NaN","<div style=""width:500px;"">
                                <p style=""font-size:50px; font-weight:bold;""
                                ></p>
                                <div style=""width:240px; margin: auto;"">
                                    <img src=""images/D24.png"" style= ""width:200px""alt=""img"">
                                </div>
                            </div>","27","","0","images/D24.png","","","","[""Rectangular"",""Rounded""]"
"","","","","","html-slider-response","136","393357","0.0-124.0","3r25tlnnvc","NaN","<div style=""width:500px;"">
                                <p style=""font-size:50px; font-weight:bold;""
                                ></p>
                                <div style=""width:240px; margin: auto;"">
                                    <img src=""images/D80.png"" style= ""width:200px""alt=""img"">
                                </div>
                            </div>","-27","","0","images/D80.png","","","","[""Rectangular"",""Rounded""]"
"","","","","","html-slider-response","137","394985","0.0-125.0","3r25tlnnvc","NaN","<div style=""width:500px;"">
                                <p style=""font-size:50px; font-weight:bold;""
                                ></p>
                                <div style=""width:240px; margin: auto;"">
                                    <img src=""images/D87.png"" style= ""width:200px""alt=""img"">
                                </div>
                            </div>","25","","0","images/D87.png","","","","[""Rectangular"",""Rounded""]"
"","","","","","html-slider-response","138","396642","0.0-126.0","3r25tlnnvc","NaN","<div style=""width:500px;"">
                                <p style=""font-size:50px; font-weight:bold;""
                                ></p>
                                <div style=""width:240px; margin: auto;"">
                                    <img src=""images/D29.png"" style= ""width:200px""alt=""img"">
                                </div>
                            </div>","34","","0","images/D29.png","","","","[""Rectangular"",""Rounded""]"
"","","","","","html-slider-response","139","398737","0.0-127.0","3r25tlnnvc","NaN","<div style=""width:500px;"">
                                <p style=""font-size:50px; font-weight:bold;""
                                ></p>
                                <div style=""width:240px; margin: auto;"">
                                    <img src=""images/D75.png"" style= ""width:200px""alt=""img"">
                                </div>
                            </div>","172","","0","images/D75.png","","","","[""Rectangular"",""Rounded""]"
"","","","","","html-slider-response","140","400408","0.0-128.0","3r25tlnnvc","NaN","<div style=""width:500px;"">
                                <p style=""font-size:50px; font-weight:bold;""
                                ></p>
                                <div style=""width:240px; margin: auto;"">
                                    <img src=""images/D22.png"" style= ""width:200px""alt=""img"">
                                </div>
                            </div>","200","","0","images/D22.png","","","","[""Rectangular"",""Rounded""]"
"","","","","","html-slider-response","141","402470","0.0-129.0","3r25tlnnvc","NaN","<div style=""width:500px;"">
                                <p style=""font-size:50px; font-weight:bold;""
                                ></p>
                                <div style=""width:240px; margin: auto;"">
                                    <img src=""images/D1.png"" style= ""width:200px""alt=""img"">
                                </div>
                            </div>","-200","","0","images/D1.png","","","","[""Rectangular"",""Rounded""]"
"","","","","","html-slider-response","142","404870","0.0-130.0","3r25tlnnvc","NaN","<div style=""width:500px;"">
                                <p style=""font-size:50px; font-weight:bold;""
                                ></p>
                                <div style=""width:240px; margin: auto;"">
                                    <img src=""images/D9.png"" style= ""width:200px""alt=""img"">
                                </div>
                            </div>","-41","","0","images/D9.png","","","","[""Rectangular"",""Rounded""]"
"","","","","","html-slider-response","143","406842","0.0-131.0","3r25tlnnvc","NaN","<div style=""width:500px;"">
                                <p style=""font-size:50px; font-weight:bold;""
                                ></p>
                                <div style=""width:240px; margin: auto;"">
                                    <img src=""images/D57.png"" style= ""width:200px""alt=""img"">
                                </div>
                            </div>","31","","0","images/D57.png","","","","[""Rectangular"",""Rounded""]"
"","","","","","html-slider-response","144","409670","0.0-132.0","3r25tlnnvc","NaN","<div style=""width:500px;"">
                                <p style=""font-size:50px; font-weight:bold;""
                                ></p>
                                <div style=""width:240px; margin: auto;"">
                                    <img src=""images/D37.png"" style= ""width:200px""alt=""img"">
                                </div>
                            </div>","-45","","0","images/D37.png","","","","[""Rectangular"",""Rounded""]"
"","","","","","html-slider-response","145","411706","0.0-133.0","3r25tlnnvc","NaN","<div style=""width:500px;"">
                                <p style=""font-size:50px; font-weight:bold;""
                                ></p>
                                <div style=""width:240px; margin: auto;"">
                                    <img src=""images/D92.png"" style= ""width:200px""alt=""img"">
                                </div>
                            </div>","38","","0","images/D92.png","","","","[""Rectangular"",""Rounded""]"
"","","","","","html-slider-response","146","413351","0.0-134.0","3r25tlnnvc","NaN","<div style=""width:500px;"">
                                <p style=""font-size:50px; font-weight:bold;""
                                ></p>
                                <div style=""width:240px; margin: auto;"">
                                    <img src=""images/D56.png"" style= ""width:200px""alt=""img"">
                                </div>
                            </div>","55","","0","images/D56.png","","","","[""Rectangular"",""Rounded""]"
"","","","","","html-slider-response","147","415386","0.0-135.0","3r25tlnnvc","NaN","<div style=""width:500px;"">
                                <p style=""font-size:50px; font-weight:bold;""
                                ></p>
                                <div style=""width:240px; margin: auto;"">
                                    <img src=""images/D17.png"" style= ""width:200px""alt=""img"">
                                </div>
                            </div>","-49","","0","images/D17.png","","","","[""Rectangular"",""Rounded""]"
"","","","","","html-slider-response","148","417004","0.0-136.0","3r25tlnnvc","NaN","<div style=""width:500px;"">
                                <p style=""font-size:50px; font-weight:bold;""
                                ></p>
                                <div style=""width:240px; margin: auto;"">
                                    <img src=""images/D111.png"" style= ""width:200px""alt=""img"">
                                </div>
                            </div>","61","","0","images/D111.png","","","","[""Rectangular"",""Rounded""]"
"","","","","","html-slider-response","149","419156","0.0-137.0","3r25tlnnvc","NaN","<div style=""width:500px;"">
                                <p style=""font-size:50px; font-weight:bold;""
                                ></p>
                                <div style=""width:240px; margin: auto;"">
                                    <img src=""images/D105.png"" style= ""width:200px""alt=""img"">
                                </div>
                            </div>","-47","","0","images/D105.png","","","","[""Rectangular"",""Rounded""]"
"","","","","","html-slider-response","150","421237","0.0-138.0","3r25tlnnvc","NaN","<div style=""width:500px;"">
                                <p style=""font-size:50px; font-weight:bold;""
                                ></p>
                                <div style=""width:240px; margin: auto;"">
                                    <img src=""images/D78.png"" style= ""width:200px""alt=""img"">
                                </div>
                            </div>","-36","","0","images/D78.png","","","","[""Rectangular"",""Rounded""]"
"","","","","","html-slider-response","151","427468","0.0-139.0","3r25tlnnvc","NaN","<div style=""width:500px;"">
                                <p style=""font-size:50px; font-weight:bold;""
                                ></p>
                                <div style=""width:240px; margin: auto;"">
                                    <img src=""images/D18.png"" style= ""width:200px""alt=""img"">
                                </div>
                            </div>","53","","0","images/D18.png","","","","[""Rectangular"",""Rounded""]"
"","","","","","html-button-response","152","429009","0.0-140.0","3r25tlnnvc","1037","You have completed the second block of trials out of six. Please click 'Continue' when you are ready proceed.","0","","","","","","",""
"","","","","","html-button-response","153","430093","0.0-141.0","3r25tlnnvc","1081","In the following trials, you will be asked to rate textures on the scale <b>Smooth</b> versus <b>Rough</b>. Please click 'Continue' when you are ready proceed.","0","","","","","","",""
"","","","","","html-slider-response","154","432487","0.0-142.0","3r25tlnnvc","NaN","<div style=""width:500px;"">
                                <p style=""font-size:50px; font-weight:bold;""
                                ></p>
                                <div style=""width:240px; margin: auto;"">
                                    <img src=""images/D8.png"" style= ""width:200px""alt=""img"">
                                </div>
                            </div>","-200","","0","images/D8.png","","","","[""Smooth"",""Rough""]"
"","","","","","html-slider-response","155","434322","0.0-143.0","3r25tlnnvc","NaN","<div style=""width:500px;"">
                                <p style=""font-size:50px; font-weight:bold;""
                                ></p>
                                <div style=""width:240px; margin: auto;"">
                                    <img src=""images/D77.png"" style= ""width:200px""alt=""img"">
                                </div>
                            </div>","98","","0","images/D77.png","","","","[""Smooth"",""Rough""]"
"","","","","","html-slider-response","156","436205","0.0-144.0","3r25tlnnvc","NaN","<div style=""width:500px;"">
                                <p style=""font-size:50px; font-weight:bold;""
                                ></p>
                                <div style=""width:240px; margin: auto;"">
                                    <img src=""images/D106.png"" style= ""width:200px""alt=""img"">
                                </div>
                            </div>","-98","","0","images/D106.png","","","","[""Smooth"",""Rough""]"
"","","","","","html-slider-response","157","438240","0.0-145.0","3r25tlnnvc","NaN","<div style=""width:500px;"">
                                <p style=""font-size:50px; font-weight:bold;""
                                ></p>
                                <div style=""width:240px; margin: auto;"">
                                    <img src=""images/D26.png"" style= ""width:200px""alt=""img"">
                                </div>
                            </div>","103","","0","images/D26.png","","","","[""Smooth"",""Rough""]"
"","","","","","html-slider-response","158","440304","0.0-146.0","3r25tlnnvc","NaN","<div style=""width:500px;"">
                                <p style=""font-size:50px; font-weight:bold;""
                                ></p>
                                <div style=""width:240px; margin: auto;"">
                                    <img src=""images/D32.png"" style= ""width:200px""alt=""img"">
                                </div>
                            </div>","111","","0","images/D32.png","","","","[""Smooth"",""Rough""]"
"","","","","","html-slider-response","159","442154","0.0-147.0","3r25tlnnvc","NaN","<div style=""width:500px;"">
                                <p style=""font-size:50px; font-weight:bold;""
                                ></p>
                                <div style=""width:240px; margin: auto;"">
                                    <img src=""images/D16.png"" style= ""width:200px""alt=""img"">
                                </div>
                            </div>","-115","","0","images/D16.png","","","","[""Smooth"",""Rough""]"
"","","","","","html-slider-response","160","444622","0.0-148.0","3r25tlnnvc","NaN","<div style=""width:500px;"">
                                <p style=""font-size:50px; font-weight:bold;""
                                ></p>
                                <div style=""width:240px; margin: auto;"">
                                    <img src=""images/D19.png"" style= ""width:200px""alt=""img"">
                                </div>
                            </div>","134","","0","images/D19.png","","","","[""Smooth"",""Rough""]"
"","","","","","html-slider-response","161","447019","0.0-149.0","3r25tlnnvc","NaN","<div style=""width:500px;"">
                                <p style=""font-size:50px; font-weight:bold;""
                                ></p>
                                <div style=""width:240px; margin: auto;"">
                                    <img src=""images/D46.png"" style= ""width:200px""alt=""img"">
                                </div>
                            </div>","-162","","0","images/D46.png","","","","[""Smooth"",""Rough""]"
"","","","","","html-slider-response","162","449321","0.0-150.0","3r25tlnnvc","NaN","<div style=""width:500px;"">
                                <p style=""font-size:50px; font-weight:bold;""
                                ></p>
                                <div style=""width:240px; margin: auto;"">
                                    <img src=""images/D82.png"" style= ""width:200px""alt=""img"">
                                </div>
                            </div>","84","","0","images/D82.png","","","","[""Smooth"",""Rough""]"
"","","","","","html-slider-response","163","451606","0.0-151.0","3r25tlnnvc","NaN","<div style=""width:500px;"">
                                <p style=""font-size:50px; font-weight:bold;""
                                ></p>
                                <div style=""width:240px; margin: auto;"">
                                    <img src=""images/D64.png"" style= ""width:200px""alt=""img"">
                                </div>
                            </div>","106","","0","images/D64.png","","","","[""Smooth"",""Rough""]"
"","","","","","html-slider-response","164","453821","0.0-152.0","3r25tlnnvc","NaN","<div style=""width:500px;"">
                                <p style=""font-size:50px; font-weight:bold;""
                                ></p>
                                <div style=""width:240px; margin: auto;"">
                                    <img src=""images/D35.png"" style= ""width:200px""alt=""img"">
                                </div>
                            </div>","142","","0","images/D35.png","","","","[""Smooth"",""Rough""]"
"","","","","","html-slider-response","165","456188","0.0-153.0","3r25tlnnvc","NaN","<div style=""width:500px;"">
                                <p style=""font-size:50px; font-weight:bold;""
                                ></p>
                                <div style=""width:240px; margin: auto;"">
                                    <img src=""images/D20.png"" style= ""width:200px""alt=""img"">
                                </div>
                            </div>","144","","0","images/D20.png","","","","[""Smooth"",""Rough""]"
"","","","","","html-slider-response","166","458419","0.0-154.0","3r25tlnnvc","NaN","<div style=""width:500px;"">
                                <p style=""font-size:50px; font-weight:bold;""
                                ></p>
                                <div style=""width:240px; margin: auto;"">
                                    <img src=""images/D85.png"" style= ""width:200px""alt=""img"">
                                </div>
                            </div>","139","","0","images/D85.png","","","","[""Smooth"",""Rough""]"
"","","","","","html-slider-response","167","460705","0.0-155.0","3r25tlnnvc","NaN","<div style=""width:500px;"">
                                <p style=""font-size:50px; font-weight:bold;""
                                ></p>
                                <div style=""width:240px; margin: auto;"">
                                    <img src=""images/D96.png"" style= ""width:200px""alt=""img"">
                                </div>
                            </div>","167","","0","images/D96.png","","","","[""Smooth"",""Rough""]"
"","","","","","html-slider-response","168","462537","0.0-156.0","3r25tlnnvc","NaN","<div style=""width:500px;"">
                                <p style=""font-size:50px; font-weight:bold;""
                                ></p>
                                <div style=""width:240px; margin: auto;"">
                                    <img src=""images/D11.png"" style= ""width:200px""alt=""img"">
                                </div>
                            </div>","-85","","0","images/D11.png","","","","[""Smooth"",""Rough""]"
"","","","","","html-slider-response","169","464535","0.0-157.0","3r25tlnnvc","NaN","<div style=""width:500px;"">
                                <p style=""font-size:50px; font-weight:bold;""
                                ></p>
                                <div style=""width:240px; margin: auto;"">
                                    <img src=""images/D65.png"" style= ""width:200px""alt=""img"">
                                </div>
                            </div>","115","","0","images/D65.png","","","","[""Smooth"",""Rough""]"
"","","","","","html-slider-response","170","466486","0.0-158.0","3r25tlnnvc","NaN","<div style=""width:500px;"">
                                <p style=""font-size:50px; font-weight:bold;""
                                ></p>
                                <div style=""width:240px; margin: auto;"">
                                    <img src=""images/D81.png"" style= ""width:200px""alt=""img"">
                                </div>
                            </div>","-93","","0","images/D81.png","","","","[""Smooth"",""Rough""]"
"","","","","","html-slider-response","171","468303","0.0-159.0","3r25tlnnvc","NaN","<div style=""width:500px;"">
                                <p style=""font-size:50px; font-weight:bold;""
                                ></p>
                                <div style=""width:240px; margin: auto;"">
                                    <img src=""images/D3.png"" style= ""width:200px""alt=""img"">
                                </div>
                            </div>","-123","","0","images/D3.png","","","","[""Smooth"",""Rough""]"
"","","","","","html-slider-response","172","469873","0.0-160.0","3r25tlnnvc","NaN","<div style=""width:500px;"">
                                <p style=""font-size:50px; font-weight:bold;""
                                ></p>
                                <div style=""width:240px; margin: auto;"">
                                    <img src=""images/D79.png"" style= ""width:200px""alt=""img"">
                                </div>
                            </div>","-104","","0","images/D79.png","","","","[""Smooth"",""Rough""]"
"","","","","","html-slider-response","173","471867","0.0-161.0","3r25tlnnvc","NaN","<div style=""width:500px;"">
                                <p style=""font-size:50px; font-weight:bold;""
                                ></p>
                                <div style=""width:240px; margin: auto;"">
                                    <img src=""images/D34.png"" style= ""width:200px""alt=""img"">
                                </div>
                            </div>","138","","0","images/D34.png","","","","[""Smooth"",""Rough""]"
"","","","","","html-slider-response","174","473622","0.0-162.0","3r25tlnnvc","NaN","<div style=""width:500px;"">
                                <p style=""font-size:50px; font-weight:bold;""
                                ></p>
                                <div style=""width:240px; margin: auto;"">
                                    <img src=""images/D74.png"" style= ""width:200px""alt=""img"">
                                </div>
                            </div>","98","","0","images/D74.png","","","","[""Smooth"",""Rough""]"
"","","","","","html-slider-response","175","475722","0.0-163.0","3r25tlnnvc","NaN","<div style=""width:500px;"">
                                <p style=""font-size:50px; font-weight:bold;""
                                ></p>
                                <div style=""width:240px; margin: auto;"">
                                    <img src=""images/D21.png"" style= ""width:200px""alt=""img"">
                                </div>
                            </div>","-171","","0","images/D21.png","","","","[""Smooth"",""Rough""]"
"","","","","","html-slider-response","176","477507","0.0-164.0","3r25tlnnvc","NaN","<div style=""width:500px;"">
                                <p style=""font-size:50px; font-weight:bold;""
                                ></p>
                                <div style=""width:240px; margin: auto;"">
                                    <img src=""images/D48.png"" style= ""width:200px""alt=""img"">
                                </div>
                            </div>","149","","0","images/D48.png","","","","[""Smooth"",""Rough""]"
"","","","","","html-slider-response","177","479186","0.0-165.0","3r25tlnnvc","NaN","<div style=""width:500px;"">
                                <p style=""font-size:50px; font-weight:bold;""
                                ></p>
                                <div style=""width:240px; margin: auto;"">
                                    <img src=""images/D94.png"" style= ""width:200px""alt=""img"">
                                </div>
                            </div>","128","","0","images/D94.png","","","","[""Smooth"",""Rough""]"
"","","","","","html-slider-response","178","480884","0.0-166.0","3r25tlnnvc","NaN","<div style=""width:500px;"">
                                <p style=""font-size:50px; font-weight:bold;""
                                ></p>
                                <div style=""width:240px; margin: auto;"">
                                    <img src=""images/D36.png"" style= ""width:200px""alt=""img"">
                                </div>
                            </div>","32","","0","images/D36.png","","","","[""Smooth"",""Rough""]"
"","","","","","html-slider-response","179","482825","0.0-167.0","3r25tlnnvc","NaN","<div style=""width:500px;"">
                                <p style=""font-size:50px; font-weight:bold;""
                                ></p>
                                <div style=""width:240px; margin: auto;"">
                                    <img src=""images/D53.png"" style= ""width:200px""alt=""img"">
                                </div>
                            </div>","-166","","0","images/D53.png","","","","[""Smooth"",""Rough""]"
"","","","","","html-slider-response","180","484739","0.0-168.0","3r25tlnnvc","NaN","<div style=""width:500px;"">
                                <p style=""font-size:50px; font-weight:bold;""
                                ></p>
                                <div style=""width:240px; margin: auto;"">
                                    <img src=""images/D6.png"" style= ""width:200px""alt=""img"">
                                </div>
                            </div>","-106","","0","images/D6.png","","","","[""Smooth"",""Rough""]"
"","","","","","html-slider-response","181","486691","0.0-169.0","3r25tlnnvc","NaN","<div style=""width:500px;"">
                                <p style=""font-size:50px; font-weight:bold;""
                                ></p>
                                <div style=""width:240px; margin: auto;"">
                                    <img src=""images/D95.png"" style= ""width:200px""alt=""img"">
                                </div>
                            </div>","199","","0","images/D95.png","","","","[""Smooth"",""Rough""]"
"","","","","","html-slider-response","182","488636","0.0-170.0","3r25tlnnvc","NaN","<div style=""width:500px;"">
                                <p style=""font-size:50px; font-weight:bold;""
                                ></p>
                                <div style=""width:240px; margin: auto;"">
                                    <img src=""images/D102.png"" style= ""width:200px""alt=""img"">
                                </div>
                            </div>","143","","0","images/D102.png","","","","[""Smooth"",""Rough""]"
"","","","","","html-slider-response","183","491220","0.0-171.0","3r25tlnnvc","NaN","<div style=""width:500px;"">
                                <p style=""font-size:50px; font-weight:bold;""
                                ></p>
                                <div style=""width:240px; margin: auto;"">
                                    <img src=""images/D47.png"" style= ""width:200px""alt=""img"">
                                </div>
                            </div>","-122","","0","images/D47.png","","","","[""Smooth"",""Rough""]"
"","","","","","html-slider-response","184","492889","0.0-172.0","3r25tlnnvc","NaN","<div style=""width:500px;"">
                                <p style=""font-size:50px; font-weight:bold;""
                                ></p>
                                <div style=""width:240px; margin: auto;"">
                                    <img src=""images/D25.png"" style= ""width:200px""alt=""img"">
                                </div>
                            </div>","150","","0","images/D25.png","","","","[""Smooth"",""Rough""]"
"","","","","","html-slider-response","185","494790","0.0-173.0","3r25tlnnvc","NaN","<div style=""width:500px;"">
                                <p style=""font-size:50px; font-weight:bold;""
                                ></p>
                                <div style=""width:240px; margin: auto;"">
                                    <img src=""images/D84.png"" style= ""width:200px""alt=""img"">
                                </div>
                            </div>","62","","0","images/D84.png","","","","[""Smooth"",""Rough""]"
"","","","","","html-slider-response","186","496202","0.0-174.0","3r25tlnnvc","NaN","<div style=""width:500px;"">
                                <p style=""font-size:50px; font-weight:bold;""
                                ></p>
                                <div style=""width:240px; margin: auto;"">
                                    <img src=""images/D14.png"" style= ""width:200px""alt=""img"">
                                </div>
                            </div>","119","","0","images/D14.png","","","","[""Smooth"",""Rough""]"
"","","","","","html-slider-response","187","497836","0.0-175.0","3r25tlnnvc","NaN","<div style=""width:500px;"">
                                <p style=""font-size:50px; font-weight:bold;""
                                ></p>
                                <div style=""width:240px; margin: auto;"">
                                    <img src=""images/D68.png"" style= ""width:200px""alt=""img"">
                                </div>
                            </div>","-123","","0","images/D68.png","","","","[""Smooth"",""Rough""]"
"","","","","","html-slider-response","188","499451","0.0-176.0","3r25tlnnvc","NaN","<div style=""width:500px;"">
                                <p style=""font-size:50px; font-weight:bold;""
                                ></p>
                                <div style=""width:240px; margin: auto;"">
                                    <img src=""images/D104.png"" style= ""width:200px""alt=""img"">
                                </div>
                            </div>","66","","0","images/D104.png","","","","[""Smooth"",""Rough""]"
"","","","","","html-slider-response","189","501501","0.0-177.0","3r25tlnnvc","NaN","<div style=""width:500px;"">
                                <p style=""font-size:50px; font-weight:bold;""
                                ></p>
                                <div style=""width:240px; margin: auto;"">
                                    <img src=""images/D4.png"" style= ""width:200px""alt=""img"">
                                </div>
                            </div>","182","","0","images/D4.png","","","","[""Smooth"",""Rough""]"
"","","","","","html-slider-response","190","503306","0.0-178.0","3r25tlnnvc","NaN","<div style=""width:500px;"">
                                <p style=""font-size:50px; font-weight:bold;""
