"success","timeout","failed_images","failed_audio","failed_video","trial_type","trial_index","time_elapsed","internal_node_id","subject_id","rt","stimulus","response","question_order","slider_start","image_path","practiceTrial","practiceTrialNum","correct","slider_labels"
"true","false","[]","[]","[]","preload","0","226","0.0-0.0","449hsb17lq","","","","","","","","","",""
"","","","","","html-button-response","1","1360","0.0-1.0","449hsb17lq","1133","<div style='text-align:center; font-size:20px; line-height:25px; width: 1200px;'>
                Welcome to our experiment! <br>
                <br>At the bottom of this screen, you will see a button that says 'Begin Experiment.
                <br>Please only click that button when you are ready to complete the 25 minute experiment in one sitting. <br>
                <br> Once you click that button, it will not be possible to restart the experiment. <br><br>","0","","","","","","",""
"true","","","","","fullscreen","2","4232","0.0-2.0","449hsb17lq","1868","","","","","","","","",""
"","","","","","survey-multi-select","3","11464","0.0-3.0","449hsb17lq","7227","","{""Consent"":[""<strong>I consent</strong>""]}","[0]","","","","","",""
"","","","","","html-button-response","4","15383","0.0-4.0","449hsb17lq","3915","Welcome! <p> This experiment involves two parts: demographic information, followed by the experimental task.<p> It will take about 25 minutes to complete both parts.","0","","","","","","",""
"","","","","","survey-text","5","26386","0.0-5.0","449hsb17lq","10998","","{""Age"":""19"",""Gender"":""Female"",""Race/ethnicity"":""White""}","","","","","","",""
"","","","","","html-slider-response","6","46903","0.0-6.0","449hsb17lq","20515","
                <div style='text-align:center; height: auto; margin-left=-100px; margin-bottom: -20px; font-size:20px; line-height:5px; width: 1200px;'>
                    <br>During this experiment, you will see a series of textures, one at a time, like the ones below: 
                </div>
                    <br>
                    <br>
                    <img src=""anchoring_visual_textures.png"" alt=""img"" style=""max-width:1200px; margin-left: -10px;"">
                </div>
                <div style=""clear: both;""></div>
                </div>
                    <div style='text-align:center; margin-left=-100px; font-size:20px; line-height:20px; width: 1200px; margin-top: -50px;'>
                    
                    <br> For each texture, you will be asked to rate where you think it falls on each of the response scales with the following endpoints:
                    </div>
                            <div style=""text-align: center; width: 1400px; "">
                                <p style=""font-size:20px; line-height:5px; ""><b>Blobby</b> versus <b>Stripey</b></p>
                                <p style=""font-size:20px; line-height:5px; ""><b>Rounded</b> versus <b>Rectangular</b></p>
                                <p style=""font-size:20px;line-height:5px;""><b>Coarse</b> versus <b>Fine</b></p>
                                <p style=""font-size:20px;line-height:5px; ""><b>Rough</b> versus <b>Smooth</b></p>
                                <p style=""font-size:20px;line-height:5px; ""><b>Random</b> versus <b>Non-Random</b></p>
                                <p style=""font-size:20px;line-height:5px;""><b>Hard</b> versus <b>Soft</b></p>
                            </div>
                            <div style='text-align:center; font-size:20px; line-height:20px; width: 1400px;'>
                    
                    Each trial will include one texture and one response scale. You will be asked to make your rating by sliding the cursor along a slider response scale like the one below.
                    <br><br> Before beginning, please look at the textures and scales. For each scale, think about the texture you associate most with the left endpoint. When you see that texture for that response scale, please click near the left of the scale.
                    <br><br> Now, please think about the texture you associate most with the right endpoint of each scale. When you see that texture for that response scale, please click near the right of the scale. 
                    <br><br> If you think a texture is not strongly associated with either endpoint of the scale, please click near the midpoint of the scale. Please use the full range of the scale. 
                    <br><br> You will be asked to rate each texture for a given scale before moving on to the next scale.
                    <br><br> Please press the 'Continue' button for instructions on how to use the slider.                     <br><br>
                ","-78","","0","visual_textures_anchoring.png","true","","",""
"","","","","","html-button-response","7","51086","0.0-7.0","449hsb17lq","4182","<div style=""width:1200px; margin-top:-150px;""><p style=""text-align:center; font-size:24px;"">To move the slider, click and drag your cursor to the location of the scale where you would like to make your rating and then let go. <br><br> When you let go of the slider, your response will be recorded and the next trial will begin. <br><br><br>
                We are interested in your initial impressions of each texture and scale, so please go with your first intuition. <br><br>
                Before you begin the experiment, there will be four training trials for you to practice using the scale. <br><br><br><br></div>
                <div style=""width:1200px;""><p style=""text-align:center; font-size:20px;"">When you are ready to start the training trials, please click ""Continue"".</p></div>","0","","","","","","",""
"","","","","","html-slider-response","8","54013","0.0-8.0-0.0","449hsb17lq","NaN","<div style=""width:500px;"">
                                <p style=""font-size:25px;"">Please move the slider all the way to the <br> right endpoint of the scale</p>

                                </div>
                            </div>","200","","0","","true","0","true",""
"","","","","","html-button-response","9","55502","0.0-8.0-1.0","449hsb17lq","984","<p align='center'><b>Good job!</b> Click on 'Continue' to proceed.</p>","0","","","","","","",""
"","","","","","html-slider-response","10","57079","0.0-9.0-0.0","449hsb17lq","NaN","<div style=""width:500px;"">
                                <p style=""font-size:25px;"">Please move the slider all the way to the <br> left endpoint of the scale</p>

                                </div>
                            </div>","-200","","0","","true","1","true",""
"","","","","","html-button-response","11","59223","0.0-9.0-1.0","449hsb17lq","1640","<p align='center'><b>Good job!</b> Click on 'Continue' to proceed.</p>","0","","","","","","",""
"","","","","","html-slider-response","12","65285","0.0-10.0-0.0","449hsb17lq","NaN","<div style=""width:500px;"">
                                <p style=""font-size:25px;"">Please move the slider halfway between the center and right endpoint of the scale</p>

                                </div>
                            </div>","100","","0","","true","2","true",""
"","","","","","html-button-response","13","66516","0.0-10.0-1.0","449hsb17lq","728","<p align='center'><b>Good job!</b> Click on 'Continue' to proceed.</p>","0","","","","","","",""
"","","","","","html-slider-response","14","69249","0.0-11.0-0.0","449hsb17lq","NaN","<div style=""width:500px;"">
                                <p style=""font-size:25px;"">Please move the slider halfway between the center and left endpoint of the scale</p>

                                </div>
                            </div>","-108","","0","","true","3","true",""
"","","","","","html-button-response","15","70659","0.0-11.0-1.0","449hsb17lq","907","<p align='center'><b>Good job!</b> Click on 'Continue' to proceed.</p>","0","","","","","","",""
"","","","","","html-button-response","16","77260","0.0-12.0","449hsb17lq","6600","<div style=""width:800px; margin-top:-300px;""><p style=""text-align:center; font-size:22px; line-height:25px;""""> Great job! You've completed the practice trials.</div>
                     <div style=""width:800px; margin-top:-20px;""><p style=""text-align:center""><br><br> In the following trials, you will be asked to rate textures on each scale one-by-one. <br> You will be given opportunities to take breaks when you have completed each block of trials. There are six total blocks of trials. <br><br> Please click continue to begin the main task.<br><br><br> </div>","0","","","","","","",""
"","","","","","html-button-response","17","114100","0.0-13.0","449hsb17lq","36840","In the following trials, you will be asked to rate textures on the scale <b>Coarse</b> versus <b>Fine</b>. Please click 'Continue' when you are ready proceed.","0","","","","","","",""
"","","","","","html-slider-response","18","119393","0.0-14.0","449hsb17lq","NaN","<div style=""width:500px;"">
                                <p style=""font-size:50px; font-weight:bold;""
                                ></p>
                                <div style=""width:240px; margin: auto;"">
                                    <img src=""images/D80.png"" style= ""width:200px""alt=""img"">
                                </div>
                            </div>","106","","0","images/D80.png","","","","[""Coarse"",""Fine""]"
"","","","","","html-slider-response","19","123501","0.0-15.0","449hsb17lq","NaN","<div style=""width:500px;"">
                                <p style=""font-size:50px; font-weight:bold;""
                                ></p>
                                <div style=""width:240px; margin: auto;"">
                                    <img src=""images/D29.png"" style= ""width:200px""alt=""img"">
                                </div>
                            </div>","176","","0","images/D29.png","","","","[""Coarse"",""Fine""]"
"","","","","","html-slider-response","20","128212","0.0-16.0","449hsb17lq","NaN","<div style=""width:500px;"">
                                <p style=""font-size:50px; font-weight:bold;""
                                ></p>
                                <div style=""width:240px; margin: auto;"">
                                    <img src=""images/D82.png"" style= ""width:200px""alt=""img"">
                                </div>
                            </div>","64","","0","images/D82.png","","","","[""Coarse"",""Fine""]"
"","","","","","html-slider-response","21","131849","0.0-17.0","449hsb17lq","NaN","<div style=""width:500px;"">
                                <p style=""font-size:50px; font-weight:bold;""
                                ></p>
                                <div style=""width:240px; margin: auto;"">
                                    <img src=""images/D87.png"" style= ""width:200px""alt=""img"">
                                </div>
                            </div>","-18","","0","images/D87.png","","","","[""Coarse"",""Fine""]"
"","","","","","html-slider-response","22","134562","0.0-18.0","449hsb17lq","NaN","<div style=""width:500px;"">
                                <p style=""font-size:50px; font-weight:bold;""
                                ></p>
                                <div style=""width:240px; margin: auto;"">
                                    <img src=""images/D104.png"" style= ""width:200px""alt=""img"">
                                </div>
                            </div>","14","","0","images/D104.png","","","","[""Coarse"",""Fine""]"
"","","","","","html-slider-response","23","137759","0.0-19.0","449hsb17lq","NaN","<div style=""width:500px;"">
                                <p style=""font-size:50px; font-weight:bold;""
                                ></p>
                                <div style=""width:240px; margin: auto;"">
                                    <img src=""images/D85.png"" style= ""width:200px""alt=""img"">
                                </div>
                            </div>","107","","0","images/D85.png","","","","[""Coarse"",""Fine""]"
"","","","","","html-slider-response","24","139963","0.0-20.0","449hsb17lq","NaN","<div style=""width:500px;"">
                                <p style=""font-size:50px; font-weight:bold;""
                                ></p>
                                <div style=""width:240px; margin: auto;"">
                                    <img src=""images/D47.png"" style= ""width:200px""alt=""img"">
                                </div>
                            </div>","-154","","0","images/D47.png","","","","[""Coarse"",""Fine""]"
"","","","","","html-slider-response","25","142380","0.0-21.0","449hsb17lq","NaN","<div style=""width:500px;"">
                                <p style=""font-size:50px; font-weight:bold;""
                                ></p>
                                <div style=""width:240px; margin: auto;"">
                                    <img src=""images/D20.png"" style= ""width:200px""alt=""img"">
                                </div>
                            </div>","-76","","0","images/D20.png","","","","[""Coarse"",""Fine""]"
"","","","","","html-slider-response","26","144636","0.0-22.0","449hsb17lq","NaN","<div style=""width:500px;"">
                                <p style=""font-size:50px; font-weight:bold;""
                                ></p>
                                <div style=""width:240px; margin: auto;"">
                                    <img src=""images/D36.png"" style= ""width:200px""alt=""img"">
                                </div>
                            </div>","98","","0","images/D36.png","","","","[""Coarse"",""Fine""]"
"","","","","","html-slider-response","27","147034","0.0-23.0","449hsb17lq","NaN","<div style=""width:500px;"">
                                <p style=""font-size:50px; font-weight:bold;""
                                ></p>
                                <div style=""width:240px; margin: auto;"">
                                    <img src=""images/D4.png"" style= ""width:200px""alt=""img"">
                                </div>
                            </div>","182","","0","images/D4.png","","","","[""Coarse"",""Fine""]"
"","","","","","html-slider-response","28","149247","0.0-24.0","449hsb17lq","NaN","<div style=""width:500px;"">
                                <p style=""font-size:50px; font-weight:bold;""
                                ></p>
                                <div style=""width:240px; margin: auto;"">
                                    <img src=""images/D64.png"" style= ""width:200px""alt=""img"">
                                </div>
                            </div>","-159","","0","images/D64.png","","","","[""Coarse"",""Fine""]"
"","","","","","html-slider-response","29","151717","0.0-25.0","449hsb17lq","NaN","<div style=""width:500px;"">
                                <p style=""font-size:50px; font-weight:bold;""
                                ></p>
                                <div style=""width:240px; margin: auto;"">
                                    <img src=""images/D95.png"" style= ""width:200px""alt=""img"">
                                </div>
                            </div>","-176","","0","images/D95.png","","","","[""Coarse"",""Fine""]"
"","","","","","html-slider-response","30","154035","0.0-26.0","449hsb17lq","NaN","<div style=""width:500px;"">
                                <p style=""font-size:50px; font-weight:bold;""
                                ></p>
                                <div style=""width:240px; margin: auto;"">
                                    <img src=""images/D84.png"" style= ""width:200px""alt=""img"">
                                </div>
                            </div>","162","","0","images/D84.png","","","","[""Coarse"",""Fine""]"
"","","","","","html-slider-response","31","156480","0.0-27.0","449hsb17lq","NaN","<div style=""width:500px;"">
                                <p style=""font-size:50px; font-weight:bold;""
                                ></p>
                                <div style=""width:240px; margin: auto;"">
                                    <img src=""images/D66.png"" style= ""width:200px""alt=""img"">
                                </div>
                            </div>","-54","","0","images/D66.png","","","","[""Coarse"",""Fine""]"
"","","","","","html-slider-response","32","158717","0.0-28.0","449hsb17lq","NaN","<div style=""width:500px;"">
                                <p style=""font-size:50px; font-weight:bold;""
                                ></p>
                                <div style=""width:240px; margin: auto;"">
                                    <img src=""images/D56.png"" style= ""width:200px""alt=""img"">
                                </div>
                            </div>","-98","","0","images/D56.png","","","","[""Coarse"",""Fine""]"
"","","","","","html-slider-response","33","160370","0.0-29.0","449hsb17lq","NaN","<div style=""width:500px;"">
                                <p style=""font-size:50px; font-weight:bold;""
                                ></p>
                                <div style=""width:240px; margin: auto;"">
                                    <img src=""images/D101.png"" style= ""width:200px""alt=""img"">
                                </div>
                            </div>","-25","","0","images/D101.png","","","","[""Coarse"",""Fine""]"
"","","","","","html-slider-response","34","162486","0.0-30.0","449hsb17lq","NaN","<div style=""width:500px;"">
                                <p style=""font-size:50px; font-weight:bold;""
                                ></p>
                                <div style=""width:240px; margin: auto;"">
                                    <img src=""images/D16.png"" style= ""width:200px""alt=""img"">
                                </div>
                            </div>","154","","0","images/D16.png","","","","[""Coarse"",""Fine""]"
"","","","","","html-slider-response","35","164351","0.0-31.0","449hsb17lq","NaN","<div style=""width:500px;"">
                                <p style=""font-size:50px; font-weight:bold;""
                                ></p>
                                <div style=""width:240px; margin: auto;"">
                                    <img src=""images/D77.png"" style= ""width:200px""alt=""img"">
                                </div>
                            </div>","200","","0","images/D77.png","","","","[""Coarse"",""Fine""]"
"","","","","","html-slider-response","36","167095","0.0-32.0","449hsb17lq","NaN","<div style=""width:500px;"">
                                <p style=""font-size:50px; font-weight:bold;""
                                ></p>
                                <div style=""width:240px; margin: auto;"">
                                    <img src=""images/D22.png"" style= ""width:200px""alt=""img"">
                                </div>
                            </div>","-15","","0","images/D22.png","","","","[""Coarse"",""Fine""]"
"","","","","","html-slider-response","37","169405","0.0-33.0","449hsb17lq","NaN","<div style=""width:500px;"">
                                <p style=""font-size:50px; font-weight:bold;""
                                ></p>
                                <div style=""width:240px; margin: auto;"">
                                    <img src=""images/D52.png"" style= ""width:200px""alt=""img"">
                                </div>
                            </div>","11","","0","images/D52.png","","","","[""Coarse"",""Fine""]"
"","","","","","html-slider-response","38","171463","0.0-34.0","449hsb17lq","NaN","<div style=""width:500px;"">
                                <p style=""font-size:50px; font-weight:bold;""
                                ></p>
                                <div style=""width:240px; margin: auto;"">
                                    <img src=""images/D76.png"" style= ""width:200px""alt=""img"">
                                </div>
                            </div>","10","","0","images/D76.png","","","","[""Coarse"",""Fine""]"
"","","","","","html-slider-response","39","173288","0.0-35.0","449hsb17lq","NaN","<div style=""width:500px;"">
                                <p style=""font-size:50px; font-weight:bold;""
                                ></p>
                                <div style=""width:240px; margin: auto;"">
                                    <img src=""images/D78.png"" style= ""width:200px""alt=""img"">
                                </div>
                            </div>","27","","0","images/D78.png","","","","[""Coarse"",""Fine""]"
"","","","","","html-slider-response","40","175176","0.0-36.0","449hsb17lq","NaN","<div style=""width:500px;"">
                                <p style=""font-size:50px; font-weight:bold;""
                                ></p>
                                <div style=""width:240px; margin: auto;"">
                                    <img src=""images/D92.png"" style= ""width:200px""alt=""img"">
                                </div>
                            </div>","98","","0","images/D92.png","","","","[""Coarse"",""Fine""]"
"","","","","","html-slider-response","41","177000","0.0-37.0","449hsb17lq","NaN","<div style=""width:500px;"">
                                <p style=""font-size:50px; font-weight:bold;""
                                ></p>
                                <div style=""width:240px; margin: auto;"">
                                    <img src=""images/D81.png"" style= ""width:200px""alt=""img"">
                                </div>
                            </div>","118","","0","images/D81.png","","","","[""Coarse"",""Fine""]"
"","","","","","html-slider-response","42","179155","0.0-38.0","449hsb17lq","NaN","<div style=""width:500px;"">
                                <p style=""font-size:50px; font-weight:bold;""
                                ></p>
                                <div style=""width:240px; margin: auto;"">
                                    <img src=""images/D102.png"" style= ""width:200px""alt=""img"">
                                </div>
                            </div>","-126","","0","images/D102.png","","","","[""Coarse"",""Fine""]"
"","","","","","html-slider-response","43","180966","0.0-39.0","449hsb17lq","NaN","<div style=""width:500px;"">
                                <p style=""font-size:50px; font-weight:bold;""
                                ></p>
                                <div style=""width:240px; margin: auto;"">
                                    <img src=""images/D11.png"" style= ""width:200px""alt=""img"">
                                </div>
                            </div>","-50","","0","images/D11.png","","","","[""Coarse"",""Fine""]"
"","","","","","html-slider-response","44","183088","0.0-40.0","449hsb17lq","NaN","<div style=""width:500px;"">
                                <p style=""font-size:50px; font-weight:bold;""
                                ></p>
                                <div style=""width:240px; margin: auto;"">
                                    <img src=""images/D19.png"" style= ""width:200px""alt=""img"">
                                </div>
                            </div>","155","","0","images/D19.png","","","","[""Coarse"",""Fine""]"
"","","","","","html-slider-response","45","184800","0.0-41.0","449hsb17lq","NaN","<div style=""width:500px;"">
                                <p style=""font-size:50px; font-weight:bold;""
                                ></p>
                                <div style=""width:240px; margin: auto;"">
                                    <img src=""images/D65.png"" style= ""width:200px""alt=""img"">
                                </div>
                            </div>","-56","","0","images/D65.png","","","","[""Coarse"",""Fine""]"
"","","","","","html-slider-response","46","186922","0.0-42.0","449hsb17lq","NaN","<div style=""width:500px;"">
                                <p style=""font-size:50px; font-weight:bold;""
                                ></p>
                                <div style=""width:240px; margin: auto;"">
                                    <img src=""images/D105.png"" style= ""width:200px""alt=""img"">
                                </div>
                            </div>","170","","0","images/D105.png","","","","[""Coarse"",""Fine""]"
"","","","","","html-slider-response","47","188651","0.0-43.0","449hsb17lq","NaN","<div style=""width:500px;"">
                                <p style=""font-size:50px; font-weight:bold;""
                                ></p>
                                <div style=""width:240px; margin: auto;"">
                                    <img src=""images/D83.png"" style= ""width:200px""alt=""img"">
                                </div>
                            </div>","62","","0","images/D83.png","","","","[""Coarse"",""Fine""]"
"","","","","","html-slider-response","48","190550","0.0-44.0","449hsb17lq","NaN","<div style=""width:500px;"">
                                <p style=""font-size:50px; font-weight:bold;""
                                ></p>
                                <div style=""width:240px; margin: auto;"">
                                    <img src=""images/D34.png"" style= ""width:200px""alt=""img"">
                                </div>
                            </div>","-60","","0","images/D34.png","","","","[""Coarse"",""Fine""]"
"","","","","","html-slider-response","49","192012","0.0-45.0","449hsb17lq","NaN","<div style=""width:500px;"">
                                <p style=""font-size:50px; font-weight:bold;""
                                ></p>
                                <div style=""width:240px; margin: auto;"">
                                    <img src=""images/D103.png"" style= ""width:200px""alt=""img"">
                                </div>
                            </div>","79","","0","images/D103.png","","","","[""Coarse"",""Fine""]"
"","","","","","html-slider-response","50","194405","0.0-46.0","449hsb17lq","NaN","<div style=""width:500px;"">
                                <p style=""font-size:50px; font-weight:bold;""
                                ></p>
                                <div style=""width:240px; margin: auto;"">
                                    <img src=""images/D18.png"" style= ""width:200px""alt=""img"">
                                </div>
                            </div>","-138","","0","images/D18.png","","","","[""Coarse"",""Fine""]"
"","","","","","html-slider-response","51","196270","0.0-47.0","449hsb17lq","NaN","<div style=""width:500px;"">
                                <p style=""font-size:50px; font-weight:bold;""
                                ></p>
                                <div style=""width:240px; margin: auto;"">
                                    <img src=""images/D35.png"" style= ""width:200px""alt=""img"">
                                </div>
                            </div>","-58","","0","images/D35.png","","","","[""Coarse"",""Fine""]"
"","","","","","html-slider-response","52","200517","0.0-48.0","449hsb17lq","NaN","<div style=""width:500px;"">
                                <p style=""font-size:50px; font-weight:bold;""
                                ></p>
                                <div style=""width:240px; margin: auto;"">
                                    <img src=""images/D94.png"" style= ""width:200px""alt=""img"">
                                </div>
                            </div>","-180","","0","images/D94.png","","","","[""Coarse"",""Fine""]"
"","","","","","html-slider-response","53","202780","0.0-49.0","449hsb17lq","NaN","<div style=""width:500px;"">
                                <p style=""font-size:50px; font-weight:bold;""
                                ></p>
                                <div style=""width:240px; margin: auto;"">
                                    <img src=""images/D48.png"" style= ""width:200px""alt=""img"">
                                </div>
                            </div>","-200","","0","images/D48.png","","","","[""Coarse"",""Fine""]"
"","","","","","html-slider-response","54","205038","0.0-50.0","449hsb17lq","NaN","<div style=""width:500px;"">
                                <p style=""font-size:50px; font-weight:bold;""
                                ></p>
                                <div style=""width:240px; margin: auto;"">
                                    <img src=""images/D9.png"" style= ""width:200px""alt=""img"">
                                </div>
                            </div>","200","","0","images/D9.png","","","","[""Coarse"",""Fine""]"
"","","","","","html-slider-response","55","207347","0.0-51.0","449hsb17lq","NaN","<div style=""width:500px;"">
                                <p style=""font-size:50px; font-weight:bold;""
                                ></p>
                                <div style=""width:240px; margin: auto;"">
                                    <img src=""images/D46.png"" style= ""width:200px""alt=""img"">
                                </div>
                            </div>","-119","","0","images/D46.png","","","","[""Coarse"",""Fine""]"
"","","","","","html-slider-response","56","211695","0.0-52.0","449hsb17lq","NaN","<div style=""width:500px;"">
                                <p style=""font-size:50px; font-weight:bold;""
                                ></p>
                                <div style=""width:240px; margin: auto;"">
                                    <img src=""images/D57.png"" style= ""width:200px""alt=""img"">
                                </div>
                            </div>","109","","0","images/D57.png","","","","[""Coarse"",""Fine""]"
"","","","","","html-slider-response","57","214677","0.0-53.0","449hsb17lq","NaN","<div style=""width:500px;"">
                                <p style=""font-size:50px; font-weight:bold;""
                                ></p>
                                <div style=""width:240px; margin: auto;"">
                                    <img src=""images/D111.png"" style= ""width:200px""alt=""img"">
                                </div>
                            </div>","117","","0","images/D111.png","","","","[""Coarse"",""Fine""]"
"","","","","","html-slider-response","58","216504","0.0-54.0","449hsb17lq","NaN","<div style=""width:500px;"">
                                <p style=""font-size:50px; font-weight:bold;""
                                ></p>
                                <div style=""width:240px; margin: auto;"">
                                    <img src=""images/D106.png"" style= ""width:200px""alt=""img"">
                                </div>
                            </div>","133","","0","images/D106.png","","","","[""Coarse"",""Fine""]"
"","","","","","html-slider-response","59","217827","0.0-55.0","449hsb17lq","NaN","<div style=""width:500px;"">
                                <p style=""font-size:50px; font-weight:bold;""
                                ></p>
                                <div style=""width:240px; margin: auto;"">
                                    <img src=""images/D24.png"" style= ""width:200px""alt=""img"">
                                </div>
                            </div>","58","","0","images/D24.png","","","","[""Coarse"",""Fine""]"
"","","","","","html-slider-response","60","219499","0.0-56.0","449hsb17lq","NaN","<div style=""width:500px;"">
                                <p style=""font-size:50px; font-weight:bold;""
                                ></p>
                                <div style=""width:240px; margin: auto;"">
                                    <img src=""images/D25.png"" style= ""width:200px""alt=""img"">
                                </div>
                            </div>","-200","","0","images/D25.png","","","","[""Coarse"",""Fine""]"
"","","","","","html-slider-response","61","221435","0.0-57.0","449hsb17lq","NaN","<div style=""width:500px;"">
                                <p style=""font-size:50px; font-weight:bold;""
                                ></p>
                                <div style=""width:240px; margin: auto;"">
                                    <img src=""images/D51.png"" style= ""width:200px""alt=""img"">
                                </div>
                            </div>","-88","","0","images/D51.png","","","","[""Coarse"",""Fine""]"
"","","","","","html-slider-response","62","223365","0.0-58.0","449hsb17lq","NaN","<div style=""width:500px;"">
                                <p style=""font-size:50px; font-weight:bold;""
                                ></p>
                                <div style=""width:240px; margin: auto;"">
                                    <img src=""images/D32.png"" style= ""width:200px""alt=""img"">
                                </div>
                            </div>","90","","0","images/D32.png","","","","[""Coarse"",""Fine""]"
"","","","","","html-slider-response","63","225705","0.0-59.0","449hsb17lq","NaN","<div style=""width:500px;"">
                                <p style=""font-size:50px; font-weight:bold;""
                                ></p>
                                <div style=""width:240px; margin: auto;"">
                                    <img src=""images/D26.png"" style= ""width:200px""alt=""img"">
                                </div>
                            </div>","-200","","0","images/D26.png","","","","[""Coarse"",""Fine""]"
"","","","","","html-slider-response","64","227772","0.0-60.0","449hsb17lq","NaN","<div style=""width:500px;"">
                                <p style=""font-size:50px; font-weight:bold;""
                                ></p>
                                <div style=""width:240px; margin: auto;"">
                                    <img src=""images/D53.png"" style= ""width:200px""alt=""img"">
                                </div>
                            </div>","126","","0","images/D53.png","","","","[""Coarse"",""Fine""]"
"","","","","","html-slider-response","65","229636","0.0-61.0","449hsb17lq","NaN","<div style=""width:500px;"">
                                <p style=""font-size:50px; font-weight:bold;""
                                ></p>
                                <div style=""width:240px; margin: auto;"">
                                    <img src=""images/D6.png"" style= ""width:200px""alt=""img"">
                                </div>
                            </div>","150","","0","images/D6.png","","","","[""Coarse"",""Fine""]"
"","","","","","html-slider-response","66","231669","0.0-62.0","449hsb17lq","NaN","<div style=""width:500px;"">
                                <p style=""font-size:50px; font-weight:bold;""
                                ></p>
                                <div style=""width:240px; margin: auto;"">
                                    <img src=""images/D14.png"" style= ""width:200px""alt=""img"">
                                </div>
                            </div>","173","","0","images/D14.png","","","","[""Coarse"",""Fine""]"
"","","","","","html-slider-response","67","233279","0.0-63.0","449hsb17lq","NaN","<div style=""width:500px;"">
                                <p style=""font-size:50px; font-weight:bold;""
                                ></p>
                                <div style=""width:240px; margin: auto;"">
                                    <img src=""images/D75.png"" style= ""width:200px""alt=""img"">
                                </div>
                            </div>","-47","","0","images/D75.png","","","","[""Coarse"",""Fine""]"
"","","","","","html-slider-response","68","235301","0.0-64.0","449hsb17lq","NaN","<div style=""width:500px;"">
                                <p style=""font-size:50px; font-weight:bold;""
                                ></p>
                                <div style=""width:240px; margin: auto;"">
                                    <img src=""images/D21.png"" style= ""width:200px""alt=""img"">
                                </div>
                            </div>","200","","0","images/D21.png","","","","[""Coarse"",""Fine""]"
"","","","","","html-slider-response","69","239832","0.0-65.0","449hsb17lq","NaN","<div style=""width:500px;"">
                                <p style=""font-size:50px; font-weight:bold;""
                                ></p>
                                <div style=""width:240px; margin: auto;"">
                                    <img src=""images/D68.png"" style= ""width:200px""alt=""img"">
                                </div>
                            </div>","31","","0","images/D68.png","","","","[""Coarse"",""Fine""]"
"","","","","","html-slider-response","70","241436","0.0-66.0","449hsb17lq","NaN","<div style=""width:500px;"">
                                <p style=""font-size:50px; font-weight:bold;""
                                ></p>
                                <div style=""width:240px; margin: auto;"">
                                    <img src=""images/D55.png"" style= ""width:200px""alt=""img"">
                                </div>
                            </div>","106","","0","images/D55.png","","","","[""Coarse"",""Fine""]"
"","","","","","html-slider-response","71","243028","0.0-67.0","449hsb17lq","NaN","<div style=""width:500px;"">
                                <p style=""font-size:50px; font-weight:bold;""
                                ></p>
                                <div style=""width:240px; margin: auto;"">
                                    <img src=""images/D49.png"" style= ""width:200px""alt=""img"">
                                </div>
                            </div>","187","","0","images/D49.png","","","","[""Coarse"",""Fine""]"
"","","","","","html-slider-response","72","244794","0.0-68.0","449hsb17lq","NaN","<div style=""width:500px;"">
                                <p style=""font-size:50px; font-weight:bold;""
                                ></p>
                                <div style=""width:240px; margin: auto;"">
                                    <img src=""images/D3.png"" style= ""width:200px""alt=""img"">
                                </div>
                            </div>","-12","","0","images/D3.png","","","","[""Coarse"",""Fine""]"
"","","","","","html-slider-response","73","246637","0.0-69.0","449hsb17lq","NaN","<div style=""width:500px;"">
                                <p style=""font-size:50px; font-weight:bold;""
                                ></p>
                                <div style=""width:240px; margin: auto;"">
                                    <img src=""images/D8.png"" style= ""width:200px""alt=""img"">
                                </div>
                            </div>","-106","","0","images/D8.png","","","","[""Coarse"",""Fine""]"
"","","","","","html-slider-response","74","248452","0.0-70.0","449hsb17lq","NaN","<div style=""width:500px;"">
                                <p style=""font-size:50px; font-weight:bold;""
                                ></p>
                                <div style=""width:240px; margin: auto;"">
                                    <img src=""images/D17.png"" style= ""width:200px""alt=""img"">
                                </div>
                            </div>","36","","0","images/D17.png","","","","[""Coarse"",""Fine""]"
"","","","","","html-slider-response","75","250199","0.0-71.0","449hsb17lq","NaN","<div style=""width:500px;"">
                                <p style=""font-size:50px; font-weight:bold;""
                                ></p>
                                <div style=""width:240px; margin: auto;"">
                                    <img src=""images/D79.png"" style= ""width:200px""alt=""img"">
                                </div>
                            </div>","165","","0","images/D79.png","","","","[""Coarse"",""Fine""]"
"","","","","","html-slider-response","76","251875","0.0-72.0","449hsb17lq","NaN","<div style=""width:500px;"">
                                <p style=""font-size:50px; font-weight:bold;""
                                ></p>
                                <div style=""width:240px; margin: auto;"">
                                    <img src=""images/D1.png"" style= ""width:200px""alt=""img"">
                                </div>
                            </div>","-98","","0","images/D1.png","","","","[""Coarse"",""Fine""]"
"","","","","","html-slider-response","77","253766","0.0-73.0","449hsb17lq","NaN","<div style=""width:500px;"">
                                <p style=""font-size:50px; font-weight:bold;""
                                ></p>
                                <div style=""width:240px; margin: auto;"">
                                    <img src=""images/D37.png"" style= ""width:200px""alt=""img"">
                                </div>
                            </div>","-91","","0","images/D37.png","","","","[""Coarse"",""Fine""]"
"","","","","","html-slider-response","78","255946","0.0-74.0","449hsb17lq","NaN","<div style=""width:500px;"">
                                <p style=""font-size:50px; font-weight:bold;""
                                ></p>
                                <div style=""width:240px; margin: auto;"">
                                    <img src=""images/D74.png"" style= ""width:200px""alt=""img"">
                                </div>
                            </div>","-120","","0","images/D74.png","","","","[""Coarse"",""Fine""]"
"","","","","","html-slider-response","79","257662","0.0-75.0","449hsb17lq","NaN","<div style=""width:500px;"">
                                <p style=""font-size:50px; font-weight:bold;""
                                ></p>
                                <div style=""width:240px; margin: auto;"">
                                    <img src=""images/D96.png"" style= ""width:200px""alt=""img"">
                                </div>
                            </div>","-181","","0","images/D96.png","","","","[""Coarse"",""Fine""]"
"","","","","","html-button-response","80","263028","0.0-76.0","449hsb17lq","4863","You have completed the first block of trials out of six. Please click 'Continue' when you are ready proceed.","0","","","","","","",""
"","","","","","html-button-response","81","264140","0.0-77.0","449hsb17lq","1111","In the following trials, you will be asked to rate textures on the scale <b>Rough</b> versus <b>Smooth</b>. Please click 'Continue' when you are ready proceed.","0","","","","","","",""
"","","","","","html-slider-response","82","266746","0.0-78.0","449hsb17lq","NaN","<div style=""width:500px;"">
                                <p style=""font-size:50px; font-weight:bold;""
                                ></p>
                                <div style=""width:240px; margin: auto;"">
                                    <img src=""images/D77.png"" style= ""width:200px""alt=""img"">
                                </div>
                            </div>","-8","","0","images/D77.png","","","","[""Rough"",""Smooth""]"
"","","","","","html-slider-response","83","268721","0.0-79.0","449hsb17lq","NaN","<div style=""width:500px;"">
                                <p style=""font-size:50px; font-weight:bold;""
                                ></p>
                                <div style=""width:240px; margin: auto;"">
                                    <img src=""images/D56.png"" style= ""width:200px""alt=""img"">
                                </div>
                            </div>","-86","","0","images/D56.png","","","","[""Rough"",""Smooth""]"
"","","","","","html-slider-response","84","271412","0.0-80.0","449hsb17lq","NaN","<div style=""width:500px;"">
                                <p style=""font-size:50px; font-weight:bold;""
                                ></p>
                                <div style=""width:240px; margin: auto;"">
                                    <img src=""images/D105.png"" style= ""width:200px""alt=""img"">
                                </div>
                            </div>","-26","","0","images/D105.png","","","","[""Rough"",""Smooth""]"
"","","","","","html-slider-response","85","273289","0.0-81.0","449hsb17lq","NaN","<div style=""width:500px;"">
                                <p style=""font-size:50px; font-weight:bold;""
                                ></p>
                                <div style=""width:240px; margin: auto;"">
                                    <img src=""images/D18.png"" style= ""width:200px""alt=""img"">
                                </div>
                            </div>","-106","","0","images/D18.png","","","","[""Rough"",""Smooth""]"
"","","","","","html-slider-response","86","275252","0.0-82.0","449hsb17lq","NaN","<div style=""width:500px;"">
                                <p style=""font-size:50px; font-weight:bold;""
                                ></p>
                                <div style=""width:240px; margin: auto;"">
                                    <img src=""images/D84.png"" style= ""width:200px""alt=""img"">
                                </div>
                            </div>","-28","","0","images/D84.png","","","","[""Rough"",""Smooth""]"
"","","","","","html-slider-response","87","277713","0.0-83.0","449hsb17lq","NaN","<div style=""width:500px;"">
                                <p style=""font-size:50px; font-weight:bold;""
                                ></p>
                                <div style=""width:240px; margin: auto;"">
                                    <img src=""images/D25.png"" style= ""width:200px""alt=""img"">
                                </div>
                            </div>","-154","","0","images/D25.png","","","","[""Rough"",""Smooth""]"
"","","","","","html-slider-response","88","280563","0.0-84.0","449hsb17lq","NaN","<div style=""width:500px;"">
                                <p style=""font-size:50px; font-weight:bold;""
                                ></p>
                                <div style=""width:240px; margin: auto;"">
                                    <img src=""images/D51.png"" style= ""width:200px""alt=""img"">
                                </div>
                            </div>","173","","0","images/D51.png","","","","[""Rough"",""Smooth""]"
"","","","","","html-slider-response","89","283114","0.0-85.0","449hsb17lq","NaN","<div style=""width:500px;"">
                                <p style=""font-size:50px; font-weight:bold;""
                                ></p>
                                <div style=""width:240px; margin: auto;"">
                                    <img src=""images/D19.png"" style= ""width:200px""alt=""img"">
                                </div>
                            </div>","-39","","0","images/D19.png","","","","[""Rough"",""Smooth""]"
"","","","","","html-slider-response","90","284938","0.0-86.0","449hsb17lq","NaN","<div style=""width:500px;"">
                                <p style=""font-size:50px; font-weight:bold;""
                                ></p>
                                <div style=""width:240px; margin: auto;"">
                                    <img src=""images/D64.png"" style= ""width:200px""alt=""img"">
                                </div>
                            </div>","-134","","0","images/D64.png","","","","[""Rough"",""Smooth""]"
"","","","","","html-slider-response","91","287730","0.0-87.0","449hsb17lq","NaN","<div style=""width:500px;"">
                                <p style=""font-size:50px; font-weight:bold;""
                                ></p>
                                <div style=""width:240px; margin: auto;"">
                                    <img src=""images/D78.png"" style= ""width:200px""alt=""img"">
                                </div>
                            </div>","103","","0","images/D78.png","","","","[""Rough"",""Smooth""]"
"","","","","","html-slider-response","92","289313","0.0-88.0","449hsb17lq","NaN","<div style=""width:500px;"">
                                <p style=""font-size:50px; font-weight:bold;""
                                ></p>
                                <div style=""width:240px; margin: auto;"">
                                    <img src=""images/D83.png"" style= ""width:200px""alt=""img"">
                                </div>
                            </div>","-66","","0","images/D83.png","","","","[""Rough"",""Smooth""]"
"","","","","","html-slider-response","93","291540","0.0-89.0","449hsb17lq","NaN","<div style=""width:500px;"">
                                <p style=""font-size:50px; font-weight:bold;""
                                ></p>
                                <div style=""width:240px; margin: auto;"">
                                    <img src=""images/D102.png"" style= ""width:200px""alt=""img"">
                                </div>
                            </div>","-98","","0","images/D102.png","","","","[""Rough"",""Smooth""]"
"","","","","","html-slider-response","94","293420","0.0-90.0","449hsb17lq","NaN","<div style=""width:500px;"">
                                <p style=""font-size:50px; font-weight:bold;""
                                ></p>
                                <div style=""width:240px; margin: auto;"">
                                    <img src=""images/D24.png"" style= ""width:200px""alt=""img"">
                                </div>
                            </div>","-99","","0","images/D24.png","","","","[""Rough"",""Smooth""]"
"","","","","","html-slider-response","95","296222","0.0-91.0","449hsb17lq","NaN","<div style=""width:500px;"">
                                <p style=""font-size:50px; font-weight:bold;""
                                ></p>
                                <div style=""width:240px; margin: auto;"">
                                    <img src=""images/D16.png"" style= ""width:200px""alt=""img"">
                                </div>
                            </div>","74","","0","images/D16.png","","","","[""Rough"",""Smooth""]"
"","","","","","html-slider-response","96","421373","0.0-92.0","449hsb17lq","NaN","<div style=""width:500px;"">
                                <p style=""font-size:50px; font-weight:bold;""
                                ></p>
                                <div style=""width:240px; margin: auto;"">
                                    <img src=""images/D79.png"" style= ""width:200px""alt=""img"">
                                </div>
                            </div>","73","","0","images/D79.png","","","","[""Rough"",""Smooth""]"
"","","","","","html-slider-response","97","423046","0.0-93.0","449hsb17lq","NaN","<div style=""width:500px;"">
                                <p style=""font-size:50px; font-weight:bold;""
                                ></p>
                                <div style=""width:240px; margin: auto;"">
                                    <img src=""images/D14.png"" style= ""width:200px""alt=""img"">
                                </div>
                            </div>","57","","0","images/D14.png","","","","[""Rough"",""Smooth""]"
"","","","","","html-slider-response","98","424732","0.0-94.0","449hsb17lq","NaN","<div style=""width:500px;"">
                                <p style=""font-size:50px; font-weight:bold;""
                                ></p>
                                <div style=""width:240px; margin: auto;"">
                                    <img src=""images/D1.png"" style= ""width:200px""alt=""img"">
                                </div>
                            </div>","-79","","0","images/D1.png","","","","[""Rough"",""Smooth""]"
"","","","","","html-slider-response","99","426750","0.0-95.0","449hsb17lq","NaN","<div style=""width:500px;"">
                                <p style=""font-size:50px; font-weight:bold;""
                                ></p>
                                <div style=""width:240px; margin: auto;"">
                                    <img src=""images/D106.png"" style= ""width:200px""alt=""img"">
                                </div>
                            </div>","14","","0","images/D106.png","","","","[""Rough"",""Smooth""]"
"","","","","","html-slider-response","100","429198","0.0-96.0","449hsb17lq","NaN","<div style=""width:500px;"">
                                <p style=""font-size:50px; font-weight:bold;""
                                ></p>
                                <div style=""width:240px; margin: auto;"">
                                    <img src=""images/D21.png"" style= ""width:200px""alt=""img"">
                                </div>
                            </div>","161","","0","images/D21.png","","","","[""Rough"",""Smooth""]"
"","","","","","html-slider-response","101","431134","0.0-97.0","449hsb17lq","NaN","<div style=""width:500px;"">
                                <p style=""font-size:50px; font-weight:bold;""
                                ></p>
                                <div style=""width:240px; margin: auto;"">
                                    <img src=""images/D9.png"" style= ""width:200px""alt=""img"">
                                </div>
                            </div>","-85","","0","images/D9.png","","","","[""Rough"",""Smooth""]"
"","","","","","html-slider-response","102","432924","0.0-98.0","449hsb17lq","NaN","<div style=""width:500px;"">
                                <p style=""font-size:50px; font-weight:bold;""
                                ></p>
                                <div style=""width:240px; margin: auto;"">
                                    <img src=""images/D34.png"" style= ""width:200px""alt=""img"">
                                </div>
                            </div>","-30","","0","images/D34.png","","","","[""Rough"",""Smooth""]"
"","","","","","html-slider-response","103","434904","0.0-99.0","449hsb17lq","NaN","<div style=""width:500px;"">
                                <p style=""font-size:50px; font-weight:bold;""
                                ></p>
                                <div style=""width:240px; margin: auto;"">
                                    <img src=""images/D94.png"" style= ""width:200px""alt=""img"">
                                </div>
                            </div>","-123","","0","images/D94.png","","","","[""Rough"",""Smooth""]"
"","","","","","html-slider-response","104","438522","0.0-100.0","449hsb17lq","NaN","<div style=""width:500px;"">
                                <p style=""font-size:50px; font-weight:bold;""
                                ></p>
                                <div style=""width:240px; margin: auto;"">
                                    <img src=""images/D37.png"" style= ""width:200px""alt=""img"">
                                </div>
                            </div>","-111","","0","images/D37.png","","","","[""Rough"",""Smooth""]"
"","","","","","html-slider-response","105","442251","0.0-101.0","449hsb17lq","NaN","<div style=""width:500px;"">
                                <p style=""font-size:50px; font-weight:bold;""
                                ></p>
                                <div style=""width:240px; margin: auto;"">
                                    <img src=""images/D80.png"" style= ""width:200px""alt=""img"">
                                </div>
                            </div>","-91","","0","images/D80.png","","","","[""Rough"",""Smooth""]"
"","","","","","html-slider-response","106","444858","0.0-102.0","449hsb17lq","NaN","<div style=""width:500px;"">
                                <p style=""font-size:50px; font-weight:bold;""
                                ></p>
                                <div style=""width:240px; margin: auto;"">
                                    <img src=""images/D48.png"" style= ""width:200px""alt=""img"">
                                </div>
                            </div>","190","","0","images/D48.png","","","","[""Rough"",""Smooth""]"
"","","","","","html-slider-response","107","448216","0.0-103.0","449hsb17lq","NaN","<div style=""width:500px;"">
                                <p style=""font-size:50px; font-weight:bold;""
                                ></p>
                                <div style=""width:240px; margin: auto;"">
                                    <img src=""images/D8.png"" style= ""width:200px""alt=""img"">
                                </div>
                            </div>","-52","","0","images/D8.png","","","","[""Rough"",""Smooth""]"
"","","","","","html-slider-response","108","454375","0.0-104.0","449hsb17lq","NaN","<div style=""width:500px;"">
                                <p style=""font-size:50px; font-weight:bold;""
                                ></p>
                                <div style=""width:240px; margin: auto;"">
                                    <img src=""images/D85.png"" style= ""width:200px""alt=""img"">
                                </div>
                            </div>","74","","0","images/D85.png","","","","[""Rough"",""Smooth""]"
"","","","","","html-slider-response","109","457037","0.0-105.0","449hsb17lq","NaN","<div style=""width:500px;"">
                                <p style=""font-size:50px; font-weight:bold;""
                                ></p>
                                <div style=""width:240px; margin: auto;"">
                                    <img src=""images/D66.png"" style= ""width:200px""alt=""img"">
                                </div>
                            </div>","46","","0","images/D66.png","","","","[""Rough"",""Smooth""]"
"","","","","","html-slider-response","110","460372","0.0-106.0","449hsb17lq","NaN","<div style=""width:500px;"">
                                <p style=""font-size:50px; font-weight:bold;""
                                ></p>
                                <div style=""width:240px; margin: auto;"">
                                    <img src=""images/D68.png"" style= ""width:200px""alt=""img"">
                                </div>
                            </div>","58","","0","images/D68.png","","","","[""Rough"",""Smooth""]"
"","","","","","html-slider-response","111","464564","0.0-107.0","449hsb17lq","NaN","<div style=""width:500px;"">
                                <p style=""font-size:50px; font-weight:bold;""
                                ></p>
                                <div style=""width:240px; margin: auto;"">
                                    <img src=""images/D75.png"" style= ""width:200px""alt=""img"">
                                </div>
                            </div>","-58","","0","images/D75.png","","","","[""Rough"",""Smooth""]"
"","","","","","html-slider-response","112","466821","0.0-108.0","449hsb17lq","NaN","<div style=""width:500px;"">
                                <p style=""font-size:50px; font-weight:bold;""
                                ></p>
                                <div style=""width:240px; margin: auto;"">
                                    <img src=""images/D52.png"" style= ""width:200px""alt=""img"">
                                </div>
                            </div>","59","","0","images/D52.png","","","","[""Rough"",""Smooth""]"
"","","","","","html-slider-response","113","469477","0.0-109.0","449hsb17lq","NaN","<div style=""width:500px;"">
                                <p style=""font-size:50px; font-weight:bold;""
                                ></p>
                                <div style=""width:240px; margin: auto;"">
                                    <img src=""images/D96.png"" style= ""width:200px""alt=""img"">
                                </div>
                            </div>","-144","","0","images/D96.png","","","","[""Rough"",""Smooth""]"
"","","","","","html-slider-response","114","471285","0.0-110.0","449hsb17lq","NaN","<div style=""width:500px;"">
                                <p style=""font-size:50px; font-weight:bold;""
                                ></p>
                                <div style=""width:240px; margin: auto;"">
                                    <img src=""images/D20.png"" style= ""width:200px""alt=""img"">
                                </div>
                            </div>","-110","","0","images/D20.png","","","","[""Rough"",""Smooth""]"
"","","","","","html-slider-response","115","473416","0.0-111.0","449hsb17lq","NaN","<div style=""width:500px;"">
                                <p style=""font-size:50px; font-weight:bold;""
                                ></p>
                                <div style=""width:240px; margin: auto;"">
                                    <img src=""images/D32.png"" style= ""width:200px""alt=""img"">
                                </div>
                            </div>","-41","","0","images/D32.png","","","","[""Rough"",""Smooth""]"
"","","","","","html-slider-response","116","475214","0.0-112.0","449hsb17lq","NaN","<div style=""width:500px;"">
                                <p style=""font-size:50px; font-weight:bold;""
                                ></p>
                                <div style=""width:240px; margin: auto;"">
                                    <img src=""images/D26.png"" style= ""width:200px""alt=""img"">
                                </div>
                            </div>","-121","","0","images/D26.png","","","","[""Rough"",""Smooth""]"
"","","","","","html-slider-response","117","477580","0.0-113.0","449hsb17lq","NaN","<div style=""width:500px;"">
                                <p style=""font-size:50px; font-weight:bold;""
                                ></p>
                                <div style=""width:240px; margin: auto;"">
                                    <img src=""images/D46.png"" style= ""width:200px""alt=""img"">
                                </div>
                            </div>","-86","","0","images/D46.png","","","","[""Rough"",""Smooth""]"
"","","","","","html-slider-response","118","485350","0.0-114.0","449hsb17lq","NaN","<div style=""width:500px;"">
                                <p style=""font-size:50px; font-weight:bold;""
                                ></p>
                                <div style=""width:240px; margin: auto;"">
                                    <img src=""images/D17.png"" style= ""width:200px""alt=""img"">
                                </div>
                            </div>","-35","","0","images/D17.png","","","","[""Rough"",""Smooth""]"
"","","","","","html-slider-response","119","489539","0.0-115.0","449hsb17lq","NaN","<div style=""width:500px;"">
                                <p style=""font-size:50px; font-weight:bold;""
                                ></p>
                                <div style=""width:240px; margin: auto;"">
                                    <img src=""images/D11.png"" style= ""width:200px""alt=""img"">
                                </div>
                            </div>","-39","","0","images/D11.png","","","","[""Rough"",""Smooth""]"
"","","","","","html-slider-response","120","491227","0.0-116.0","449hsb17lq","NaN","<div style=""width:500px;"">
                                <p style=""font-size:50px; font-weight:bold;""
                                ></p>
                                <div style=""width:240px; margin: auto;"">
                                    <img src=""images/D76.png"" style= ""width:200px""alt=""img"">
                                </div>
                            </div>","-39","","0","images/D76.png","","","","[""Rough"",""Smooth""]"
"","","","","","html-slider-response","121","493269","0.0-117.0","449hsb17lq","NaN","<div style=""width:500px;"">
                                <p style=""font-size:50px; font-weight:bold;""
                                ></p>
                                <div style=""width:240px; margin: auto;"">
                                    <img src=""images/D57.png"" style= ""width:200px""alt=""img"">
                                </div>
                            </div>","-38","","0","images/D57.png","","","","[""Rough"",""Smooth""]"
"","","","","","html-slider-response","122","494778","0.0-118.0","449hsb17lq","NaN","<div style=""width:500px;"">
                                <p style=""font-size:50px; font-weight:bold;""
                                ></p>
                                <div style=""width:240px; margin: auto;"">
                                    <img src=""images/D103.png"" style= ""width:200px""alt=""img"">
                                </div>
                            </div>","-38","","0","images/D103.png","","","","[""Rough"",""Smooth""]"
"","","","","","html-slider-response","123","497208","0.0-119.0","449hsb17lq","NaN","<div style=""width:500px;"">
                                <p style=""font-size:50px; font-weight:bold;""
                                ></p>
                                <div style=""width:240px; margin: auto;"">
                                    <img src=""images/D49.png"" style= ""width:200px""alt=""img"">
                                </div>
                            </div>","47","","0","images/D49.png","","","","[""Rough"",""Smooth""]"
"","","","","","html-slider-response","124","499146","0.0-120.0","449hsb17lq","NaN","<div style=""width:500px;"">
                                <p style=""font-size:50px; font-weight:bold;""
                                ></p>
                                <div style=""width:240px; margin: auto;"">
                                    <img src=""images/D74.png"" style= ""width:200px""alt=""img"">
                                </div>
                            </div>","-124","","0","images/D74.png","","","","[""Rough"",""Smooth""]"
"","","","","","html-slider-response","125","508663","0.0-121.0","449hsb17lq","NaN","<div style=""width:500px;"">
                                <p style=""font-size:50px; font-weight:bold;""
                                ></p>
                                <div style=""width:240px; margin: auto;"">
                                    <img src=""images/D111.png"" style= ""width:200px""alt=""img"">
                                </div>
                            </div>","-36","","0","images/D111.png","","","","[""Rough"",""Smooth""]"
"","","","","","html-slider-response","126","510181","0.0-122.0","449hsb17lq","NaN","<div style=""width:500px;"">
                                <p style=""font-size:50px; font-weight:bold;""
                                ></p>
                                <div style=""width:240px; margin: auto;"">
                                    <img src=""images/D36.png"" style= ""width:200px""alt=""img"">
                                </div>
                            </div>","-42","","0","images/D36.png","","","","[""Rough"",""Smooth""]"
"","","","","","html-slider-response","127","511439","0.0-123.0","449hsb17lq","NaN","<div style=""width:500px;"">
                                <p style=""font-size:50px; font-weight:bold;""
                                ></p>
                                <div style=""width:240px; margin: auto;"">
                                    <img src=""images/D82.png"" style= ""width:200px""alt=""img"">
                                </div>
                            </div>","-42","","0","images/D82.png","","","","[""Rough"",""Smooth""]"
"","","","","","html-slider-response","128","512795","0.0-124.0","449hsb17lq","NaN","<div style=""width:500px;"">
                                <p style=""font-size:50px; font-weight:bold;""
                                ></p>
                                <div style=""width:240px; margin: auto;"">
                                    <img src=""images/D55.png"" style= ""width:200px""alt=""img"">
                                </div>
                            </div>","-81","","0","images/D55.png","","","","[""Rough"",""Smooth""]"
"","","","","","html-slider-response","129","514459","0.0-125.0","449hsb17lq","NaN","<div style=""width:500px;"">
                                <p style=""font-size:50px; font-weight:bold;""
                                ></p>
                                <div style=""width:240px; margin: auto;"">
                                    <img src=""images/D81.png"" style= ""width:200px""alt=""img"">
                                </div>
                            </div>","-102","","0","images/D81.png","","","","[""Rough"",""Smooth""]"
"","","","","","html-slider-response","130","515757","0.0-126.0","449hsb17lq","NaN","<div style=""width:500px;"">
                                <p style=""font-size:50px; font-weight:bold;""
                                ></p>
                                <div style=""width:240px; margin: auto;"">
                                    <img src=""images/D87.png"" style= ""width:200px""alt=""img"">
                                </div>
                            </div>","-71","","0","images/D87.png","","","","[""Rough"",""Smooth""]"
"","","","","","html-slider-response","131","517421","0.0-127.0","449hsb17lq","NaN","<div style=""width:500px;"">
                                <p style=""font-size:50px; font-weight:bold;""
                                ></p>
                                <div style=""width:240px; margin: auto;"">
                                    <img src=""images/D3.png"" style= ""width:200px""alt=""img"">
                                </div>
                            </div>","-26","","0","images/D3.png","","","","[""Rough"",""Smooth""]"
"","","","","","html-slider-response","132","518841","0.0-128.0","449hsb17lq","NaN","<div style=""width:500px;"">
                                <p style=""font-size:50px; font-weight:bold;""
                                ></p>
                                <div style=""width:240px; margin: auto;"">
                                    <img src=""images/D65.png"" style= ""width:200px""alt=""img"">
                                </div>
                            </div>","-70","","0","images/D65.png","","","","[""Rough"",""Smooth""]"
"","","","","","html-slider-response","133","520690","0.0-129.0","449hsb17lq","NaN","<div style=""width:500px;"">
                                <p style=""font-size:50px; font-weight:bold;""
                                ></p>
                                <div style=""width:240px; margin: auto;"">
                                    <img src=""images/D47.png"" style= ""width:200px""alt=""img"">
                                </div>
                            </div>","-130","","0","images/D47.png","","","","[""Rough"",""Smooth""]"
"","","","","","html-slider-response","134","522353","0.0-130.0","449hsb17lq","NaN","<div style=""width:500px;"">
                                <p style=""font-size:50px; font-weight:bold;""
                                ></p>
                                <div style=""width:240px; margin: auto;"">
                                    <img src=""images/D92.png"" style= ""width:200px""alt=""img"">
                                </div>
                            </div>","-86","","0","images/D92.png","","","","[""Rough"",""Smooth""]"
"","","","","","html-slider-response","135","525212","0.0-131.0","449hsb17lq","NaN","<div style=""width:500px;"">
                                <p style=""font-size:50px; font-weight:bold;""
                                ></p>
                                <div style=""width:240px; margin: auto;"">
                                    <img src=""images/D35.png"" style= ""width:200px""alt=""img"">
                                </div>
                            </div>","-86","","0","images/D35.png","","","","[""Rough"",""Smooth""]"
"","","","","","html-slider-response","136","528270","0.0-132.0","449hsb17lq","NaN","<div style=""width:500px;"">
                                <p style=""font-size:50px; font-weight:bold;""
                                ></p>
                                <div style=""width:240px; margin: auto;"">
                                    <img src=""images/D6.png"" style= ""width:200px""alt=""img"">
                                </div>
                            </div>","2","","0","images/D6.png","","","","[""Rough"",""Smooth""]"
"","","","","","html-slider-response","137","529747","0.0-133.0","449hsb17lq","NaN","<div style=""width:500px;"">
                                <p style=""font-size:50px; font-weight:bold;""
                                ></p>
                                <div style=""width:240px; margin: auto;"">
                                    <img src=""images/D22.png"" style= ""width:200px""alt=""img"">
                                </div>
                            </div>","2","","0","images/D22.png","","","","[""Rough"",""Smooth""]"
"","","","","","html-slider-response","138","623892","0.0-134.0","449hsb17lq","NaN","<div style=""width:500px;"">
                                <p style=""font-size:50px; font-weight:bold;""
                                ></p>
                                <div style=""width:240px; margin: auto;"">
                                    <img src=""images/D29.png"" style= ""width:200px""alt=""img"">
                                </div>
                            </div>","-46","","0","images/D29.png","","","","[""Rough"",""Smooth""]"
"","","","","","html-slider-response","139","625869","0.0-135.0","449hsb17lq","NaN","<div style=""width:500px;"">
                                <p style=""font-size:50px; font-weight:bold;""
                                ></p>
                                <div style=""width:240px; margin: auto;"">
                                    <img src=""images/D95.png"" style= ""width:200px""alt=""img"">
                                </div>
                            </div>","-142","","0","images/D95.png","","","","[""Rough"",""Smooth""]"
"","","","","","html-slider-response","140","627646","0.0-136.0","449hsb17lq","NaN","<div style=""width:500px;"">
                                <p style=""font-size:50px; font-weight:bold;""
                                ></p>
                                <div style=""width:240px; margin: auto;"">
                                    <img src=""images/D104.png"" style= ""width:200px""alt=""img"">
                                </div>
                            </div>","-47","","0","images/D104.png","","","","[""Rough"",""Smooth""]"
"","","","","","html-slider-response","141","629390","0.0-137.0","449hsb17lq","NaN","<div style=""width:500px;"">
                                <p style=""font-size:50px; font-weight:bold;""
                                ></p>
                                <div style=""width:240px; margin: auto;"">
                                    <img src=""images/D101.png"" style= ""width:200px""alt=""img"">
                                </div>
                            </div>","-67","","0","images/D101.png","","","","[""Rough"",""Smooth""]"
"","","","","","html-slider-response","142","635157","0.0-138.0","449hsb17lq","NaN","<div style=""width:500px;"">
                                <p style=""font-size:50px; font-weight:bold;""
                                ></p>
                                <div style=""width:240px; margin: auto;"">
                                    <img src=""images/D4.png"" style= ""width:200px""alt=""img"">
                                </div>
                            </div>","-102","","0","images/D4.png","","","","[""Rough"",""Smooth""]"
"","","","","","html-slider-response","143","637289","0.0-139.0","449hsb17lq","NaN","<div style=""width:500px;"">
                                <p style=""font-size:50px; font-weight:bold;""
                                ></p>
                                <div style=""width:240px; margin: auto;"">
                                    <img src=""images/D53.png"" style= ""width:200px""alt=""img"">
                                </div>
                            </div>","-61","","0","images/D53.png","","","","[""Rough"",""Smooth""]"
"","","","","","html-button-response","144","640349","0.0-140.0","449hsb17lq","2557","You have completed the second block of trials out of six. Please click 'Continue' when you are ready proceed.","0","","","","","","",""
"","","","","","html-button-response","145","688282","0.0-141.0","449hsb17lq","47932","In the following trials, you will be asked to rate textures on the scale <b>Blobby</b> versus <b>Stripey</b>. Please click 'Continue' when you are ready proceed.","0","","","","","","",""
"","","","","","html-slider-response","146","690764","0.0-142.0","449hsb17lq","NaN","<div style=""width:500px;"">
                                <p style=""font-size:50px; font-weight:bold;""
                                ></p>
                                <div style=""width:240px; margin: auto;"">
                                    <img src=""images/D80.png"" style= ""width:200px""alt=""img"">
                                </div>
                            </div>","27","","0","images/D80.png","","","","[""Blobby"",""Stripey""]"
"","","","","","html-slider-response","147","692660","0.0-143.0","449hsb17lq","NaN","<div style=""width:500px;"">
                                <p style=""font-size:50px; font-weight:bold;""
                                ></p>
                                <div style=""width:240px; margin: auto;"">
                                    <img src=""images/D29.png"" style= ""width:200px""alt=""img"">
                                </div>
                            </div>","-36","","0","images/D29.png","","","","[""Blobby"",""Stripey""]"
"","","","","","html-slider-response","148","695494","0.0-144.0","449hsb17lq","NaN","<div style=""width:500px;"">
                                <p style=""font-size:50px; font-weight:bold;""
                                ></p>
                                <div style=""width:240px; margin: auto;"">
                                    <img src=""images/D82.png"" style= ""width:200px""alt=""img"">
                                </div>
                            </div>","-20","","0","images/D82.png","","","","[""Blobby"",""Stripey""]"
"","","","","","html-slider-response","149","697698","0.0-145.0","449hsb17lq","NaN","<div style=""width:500px;"">
                                <p style=""font-size:50px; font-weight:bold;""
                                ></p>
                                <div style=""width:240px; margin: auto;"">
                                    <img src=""images/D87.png"" style= ""width:200px""alt=""img"">
                                </div>
                            </div>","-75","","0","images/D87.png","","","","[""Blobby"",""Stripey""]"
"","","","","","html-slider-response","150","821800","0.0-146.0","449hsb17lq","NaN","<div style=""width:500px;"">
                                <p style=""font-size:50px; font-weight:bold;""
                                ></p>
                                <div style=""width:240px; margin: auto;"">
                                    <img src=""images/D104.png"" style= ""width:200px""alt=""img"">
                                </div>
                            </div>","40","","0","images/D104.png","","","","[""Blobby"",""Stripey""]"
"","","","","","html-slider-response","151","823875","0.0-147.0","449hsb17lq","NaN","<div style=""width:500px;"">
                                <p style=""font-size:50px; font-weight:bold;""
                                ></p>
                                <div style=""width:240px; margin: auto;"">
                                    <img src=""images/D85.png"" style= ""width:200px""alt=""img"">
                                </div>
                            </div>","167","","0","images/D85.png","","","","[""Blobby"",""Stripey""]"
"","","","","","html-slider-response","152","825216","0.0-148.0","449hsb17lq","NaN","<div style=""width:500px;"">
                                <p style=""font-size:50px; font-weight:bold;""
                                ></p>
                                <div style=""width:240px; margin: auto;"">
                                    <img src=""images/D47.png"" style= ""width:200px""alt=""img"">
                                </div>
                            </div>","167","","0","images/D47.png","","","","[""Blobby"",""Stripey""]"
"","","","","","html-slider-response","153","828073","0.0-149.0","449hsb17lq","NaN","<div style=""width:500px;"">
                                <p style=""font-size:50px; font-weight:bold;""
                                ></p>
                                <div style=""width:240px; margin: auto;"">
                                    <img src=""images/D20.png"" style= ""width:200px""alt=""img"">
                                </div>
                            </div>","-133","","0","images/D20.png","","","","[""Blobby"",""Stripey""]"
"","","","","","html-slider-response","154","830220","0.0-150.0","449hsb17lq","NaN","<div style=""width:500px;"">
                                <p style=""font-size:50px; font-weight:bold;""
                                ></p>
                                <div style=""width:240px; margin: auto;"">
                                    <img src=""images/D36.png"" style= ""width:200px""alt=""img"">
                                </div>
                            </div>","-191","","0","images/D36.png","","","","[""Blobby"",""Stripey""]"
"","","","","","html-slider-response","155","831786","0.0-151.0","449hsb17lq","NaN","<div style=""width:500px;"">
                                <p style=""font-size:50px; font-weight:bold;""
                                ></p>
                                <div style=""width:240px; margin: auto;"">
                                    <img src=""images/D4.png"" style= ""width:200px""alt=""img"">
                                </div>
                            </div>","-74","","0","images/D4.png","","","","[""Blobby"",""Stripey""]"
"","","","","","html-slider-response","156","834363","0.0-152.0","449hsb17lq","NaN","<div style=""width:500px;"">
                                <p style=""font-size:50px; font-weight:bold;""
                                ></p>
                                <div style=""width:240px; margin: auto;"">
                                    <img src=""images/D64.png"" style= ""width:200px""alt=""img"">
                                </div>
                            </div>","2","","0","images/D64.png","","","","[""Blobby"",""Stripey""]"
"","","","","","html-slider-response","157","837413","0.0-153.0","449hsb17lq","NaN","<div style=""width:500px;"">
                                <p style=""font-size:50px; font-weight:bold;""
                                ></p>
                                <div style=""width:240px; margin: auto;"">
                                    <img src=""images/D95.png"" style= ""width:200px""alt=""img"">
                                </div>
                            </div>","-33","","0","images/D95.png","","","","[""Blobby"",""Stripey""]"
"","","","","","html-slider-response","158","839940","0.0-154.0","449hsb17lq","NaN","<div style=""width:500px;"">
                                <p style=""font-size:50px; font-weight:bold;""
                                ></p>
                                <div style=""width:240px; margin: auto;"">
                                    <img src=""images/D84.png"" style= ""width:200px""alt=""img"">
                                </div>
                            </div>","-158","","0","images/D84.png","","","","[""Blobby"",""Stripey""]"
"","","","","","html-slider-response","159","842216","0.0-155.0","449hsb17lq","NaN","<div style=""width:500px;"">
                                <p style=""font-size:50px; font-weight:bold;""
                                ></p>
                                <div style=""width:240px; margin: auto;"">
                                    <img src=""images/D66.png"" style= ""width:200px""alt=""img"">
                                </div>
                            </div>","-197","","0","images/D66.png","","","","[""Blobby"",""Stripey""]"
"","","","","","html-slider-response","160","844082","0.0-156.0","449hsb17lq","NaN","<div style=""width:500px;"">
                                <p style=""font-size:50px; font-weight:bold;""
                                ></p>
                                <div style=""width:240px; margin: auto;"">
                                    <img src=""images/D56.png"" style= ""width:200px""alt=""img"">
                                </div>
                            </div>","-69","","0","images/D56.png","","","","[""Blobby"",""Stripey""]"
"","","","","","html-slider-response","161","847327","0.0-157.0","449hsb17lq","NaN","<div style=""width:500px;"">
                                <p style=""font-size:50px; font-weight:bold;""
                                ></p>
                                <div style=""width:240px; margin: auto;"">
                                    <img src=""images/D101.png"" style= ""width:200px""alt=""img"">
                                </div>
                            </div>","-18","","0","images/D101.png","","","","[""Blobby"",""Stripey""]"
"","","","","","html-slider-response","162","850627","0.0-158.0","449hsb17lq","NaN","<div style=""width:500px;"">
                                <p style=""font-size:50px; font-weight:bold;""
                                ></p>
                                <div style=""width:240px; margin: auto;"">
                                    <img src=""images/D16.png"" style= ""width:200px""alt=""img"">
                                </div>
                            </div>","-1","","0","images/D16.png","","","","[""Blobby"",""Stripey""]"
"","","","","","html-slider-response","163","852007","0.0-159.0","449hsb17lq","NaN","<div style=""width:500px;"">
                                <p style=""font-size:50px; font-weight:bold;""
                                ></p>
                                <div style=""width:240px; margin: auto;"">
                                    <img src=""images/D77.png"" style= ""width:200px""alt=""img"">
                                </div>
                            </div>","-1","","0","images/D77.png","","","","[""Blobby"",""Stripey""]"
"","","","","","html-slider-response","164","854456","0.0-160.0","449hsb17lq","NaN","<div style=""width:500px;"">
                                <p style=""font-size:50px; font-weight:bold;""
                                ></p>
                                <div style=""width:240px; margin: auto;"">
                                    <img src=""images/D22.png"" style= ""width:200px""alt=""img"">
                                </div>
                            </div>","-200","","0","images/D22.png","","","","[""Blobby"",""Stripey""]"
"","","","","","html-slider-response","165","972215","0.0-161.0","449hsb17lq","NaN","<div style=""width:500px;"">
                                <p style=""font-size:50px; font-weight:bold;""
                                ></p>
                                <div style=""width:240px; margin: auto;"">
                                    <img src=""images/D52.png"" style= ""width:200px""alt=""img"">
                                </div>
                            </div>","-24","","0","images/D52.png","","","","[""Blobby"",""Stripey""]"
"","","","","","html-slider-response","166","975335","0.0-162.0","449hsb17lq","NaN","<div style=""width:500px;"">
                                <p style=""font-size:50px; font-weight:bold;""
                                ></p>
                                <div style=""width:240px; margin: auto;"">
                                    <img src=""images/D76.png"" style= ""width:200px""alt=""img"">
                                </div>
                            </div>","159","","0","images/D76.png","","","","[""Blobby"",""Stripey""]"
"","","","","","html-slider-response","167","977071","0.0-163.0","449hsb17lq","NaN","<div style=""width:500px;"">
                                <p style=""font-size:50px; font-weight:bold;""
                                ></p>
                                <div style=""width:240px; margin: auto;"">
                                    <img src=""images/D78.png"" style= ""width:200px""alt=""img"">
                                </div>
                            </div>","97","","0","images/D78.png","","","","[""Blobby"",""Stripey""]"
"","","","","","html-slider-response","168","979083","0.0-164.0","449hsb17lq","NaN","<div style=""width:500px;"">
                                <p style=""font-size:50px; font-weight:bold;""
                                ></p>
                                <div style=""width:240px; margin: auto;"">
                                    <img src=""images/D92.png"" style= ""width:200px""alt=""img"">
                                </div>
                            </div>","-154","","0","images/D92.png","","","","[""Blobby"",""Stripey""]"
"","","","","","html-slider-response","169","994116","0.0-165.0","449hsb17lq","NaN","<div style=""width:500px;"">
                                <p style=""font-size:50px; font-weight:bold;""
                                ></p>
                                <div style=""width:240px; margin: auto;"">
                                    <img src=""images/D81.png"" style= ""width:200px""alt=""img"">
                                </div>
                            </div>","-132","","0","images/D81.png","","","","[""Blobby"",""Stripey""]"
"","","","","","html-slider-response","170","997248","0.0-166.0","449hsb17lq","NaN","<div style=""width:500px;"">
                                <p style=""font-size:50px; font-weight:bold;""
                                ></p>
                                <div style=""width:240px; margin: auto;"">
                                    <img src=""images/D102.png"" style= ""width:200px""alt=""img"">
                                </div>
                            </div>","-122","","0","images/D102.png","","","","[""Blobby"",""Stripey""]"
"","","","","","html-slider-response","171","1000073","0.0-167.0","449hsb17lq","NaN","<div style=""width:500px;"">
                                <p style=""font-size:50px; font-weight:bold;""
                                ></p>
                                <div style=""width:240px; margin: auto;"">
                                    <img src=""images/D11.png"" style= ""width:200px""alt=""img"">
                                </div>
                            </div>","182","","0","images/D11.png","","","","[""Blobby"",""Stripey""]"
"","","","","","html-slider-response","172","1002179","0.0-168.0","449hsb17lq","NaN","<div style=""width:500px;"">
                                <p style=""font-size:50px; font-weight:bold;""
                                ></p>
                                <div style=""width:240px; margin: auto;"">
                                    <img src=""images/D19.png"" style= ""width:200px""alt=""img"">
                                </div>
                            </div>","-126","","0","images/D19.png","","","","[""Blobby"",""Stripey""]"
"","","","","","html-slider-response","173","1004730","0.0-169.0","449hsb17lq","NaN","<div style=""width:500px;"">
                                <p style=""font-size:50px; font-weight:bold;""
                                ></p>
                                <div style=""width:240px; margin: auto;"">
                                    <img src=""images/D65.png"" style= ""width:200px""alt=""img"">
                                </div>
                            </div>","4","","0","images/D65.png","","","","[""Blobby"",""Stripey""]"
"","","","","","html-slider-response","174","1006788","0.0-170.0","449hsb17lq","NaN","<div style=""width:500px;"">
                                <p style=""font-size:50px; font-weight:bold;""
                                ></p>
                                <div style=""width:240px; margin: auto;"">
                                    <img src=""images/D105.png"" style= ""width:200px""alt=""img"">
                                </div>
                            </div>","178","","0","images/D105.png","","","","[""Blobby"",""Stripey""]"
"","","","","","html-slider-response","175","1009419","0.0-171.0","449hsb17lq","NaN","<div style=""width:500px;"">
                                <p style=""font-size:50px; font-weight:bold;""
                                ></p>
                                <div style=""width:240px; margin: auto;"">
                                    <img src=""images/D83.png"" style= ""width:200px""alt=""img"">
                                </div>
                            </div>","34","","0","images/D83.png","","","","[""Blobby"",""Stripey""]"
"","","","","","html-slider-response","176","1011124","0.0-172.0","449hsb17lq","NaN","<div style=""width:500px;"">
                                <p style=""font-size:50px; font-weight:bold;""
                                ></p>
                                <div style=""width:240px; margin: auto;"">
                                    <img src=""images/D34.png"" style= ""width:200px""alt=""img"">
                                </div>
                            </div>","-198","","0","images/D34.png","","","","[""Blobby"",""Stripey""]"
"","","","","","html-slider-response","177","1013140","0.0-173.0","449hsb17lq","NaN","<div style=""width:500px;"">
                                <p style=""font-size:50px; font-weight:bold;""
                                ></p>
                                <div style=""width:240px; margin: auto;"">
                                    <img src=""images/D103.png"" style= ""width:200px""alt=""img"">
                                </div>
                            </div>","-140","","0","images/D103.png","","","","[""Blobby"",""Stripey""]"
"","","","","","html-slider-response","178","1014635","0.0-174.0","449hsb17lq","NaN","<div style=""width:500px;"">
                                <p style=""font-size:50px; font-weight:bold;""
                                ></p>
                                <div style=""width:240px; margin: auto;"">
                                    <img src=""images/D18.png"" style= ""width:200px""alt=""img"">
                                </div>
                            </div>","-106","","0","images/D18.png","","","","[""Blobby"",""Stripey""]"
"","","","","","html-slider-response","179","1016718","0.0-175.0","449hsb17lq","NaN","<div style=""width:500px;"">
                                <p style=""font-size:50px; font-weight:bold;""
                                ></p>
                                <div style=""width:240px; margin: auto;"">
                                    <img src=""images/D35.png"" style= ""width:200px""alt=""img"">
                                </div>
                            </div>","-197","","0","images/D35.png","","","","[""Blobby"",""Stripey""]"
"","","","","","html-slider-response","180","1018437","0.0-176.0","449hsb17lq","NaN","<div style=""width:500px;"">
                                <p style=""font-size:50px; font-weight:bold;""
                                ></p>
                                <div style=""width:240px; margin: auto;"">
                                    <img src=""images/D94.png"" style= ""width:200px""alt=""img"">
                                </div>
                            </div>","-50","","0","images/D94.png","","","","[""Blobby"",""Stripey""]"
"","","","","","html-slider-response","181","1020602","0.0-177.0","449hsb17lq","NaN","<div style=""width:500px;"">
                                <p style=""font-size:50px; font-weight:bold;""
                                ></p>
                                <div style=""width:240px; margin: auto;"">
                                    <img src=""images/D48.png"" style= ""width:200px""alt=""img"">
                                </div>
                            </div>","-196","","0","images/D48.png","","","","[""Blobby"",""Stripey""]"
"","","","","","html-slider-response","182","1022441","0.0-178.0","449hsb17lq","NaN","<div style=""width:500px;"">
                                <p style=""font-size:50px; font-weight:bold;""
                                ></p>
                                <div style=""width:240px; margin: auto;"">
                                    <img src=""images/D9.png"" style= ""width:200px""alt=""img"">
                                </div>
                            </div>","-51","","0","images/D9.png","","","","[""Blobby"",""Stripey""]"
"","","","","","html-slider-response","183","1025928","0.0-179.0","449hsb17lq","NaN","<div style=""width:500px;"">
                                <p style=""font-size:50px; font-weight:bold;""
                                ></p>
                                <div style=""width:240px; margin: auto;"">
                                    <img src=""images/D46.png"" style= ""width:200px""alt=""img"">
                                </div>
                            </div>","-39","","0","images/D46.png","","","","[""Blobby"",""Stripey""]"
"","","","","","html-slider-response","184","1028237","0.0-180.0","449hsb17lq","NaN","<div style=""width:500px;"">
                                <p style=""font-size:50px; font-weight:bold;""
                                ></p>
                                <div style=""width:240px; margin: auto;"">
                                    <img src=""images/D57.png"" style= ""width:200px""alt=""img"">
                                </div>
                            </div>","-198","","0","images/D57.png","","","","[""Blobby"",""Stripey""]"
"","","","","","html-slider-response","185","1034738","0.0-181.0","449hsb17lq","NaN","<div style=""width:500px;"">
                                <p style=""font-size:50px; font-weight:bold;""
                                ></p>
                                <div style=""width:240px; margin: auto;"">
                                    <img src=""images/D111.png"" style= ""width:200px""alt=""img"">
                                </div>
                            </div>","-194","","0","images/D111.png","","","","[""Blobby"",""Stripey""]"
"","","","","","html-slider-response","186","1037232","0.0-182.0","449hsb17lq","NaN","<div style=""width:500px;"">
                                <p style=""font-size:50px; font-weight:bold;""
                                ></p>
                                <div style=""width:240px; margin: auto;"">
                                    <img src=""images/D106.png"" style= ""width:200px""alt=""img"">
                                </div>
                            </div>","199","","0","images/D106.png","","","","[""Blobby"",""Stripey""]"
"","","","","","html-slider-response","187","1042499","0.0-183.0","449hsb17lq","NaN","<div style=""width:500px;"">
                                <p style=""font-size:50px; font-weight:bold;""
                                ></p>
