"success","timeout","failed_images","failed_audio","failed_video","trial_type","trial_index","time_elapsed","internal_node_id","subject_id","rt","stimulus","response","question_order","slider_start","image_path","practiceTrial","practiceTrialNum","correct","slider_labels"
"true","false","[]","[]","[]","preload","0","65","0.0-0.0","5awx4ssxx4","","","","","","","","","",""
"","","","","","html-button-response","1","3233180","0.0-1.0","5awx4ssxx4","247091","<div style='text-align:center; font-size:20px; line-height:25px; width: 1200px;'>
                Welcome to our experiment! <br>
                <br>At the bottom of this screen, you will see a button that says 'Begin Experiment.
                <br>Please only click that button when you are ready to complete the 25 minute experiment in one sitting. <br>
                <br> Once you click that button, it will not be possible to restart the experiment. <br><br>","0","","","","","","",""
"true","","","","","fullscreen","2","3235233","0.0-2.0","5awx4ssxx4","1041","","","","","","","","",""
"","","","","","survey-multi-select","3","3330340","0.0-3.0","5awx4ssxx4","95074","","{""Consent"":[""<strong>I consent</strong>""]}","[0]","","","","","",""
"","","","","","html-button-response","4","3333223","0.0-4.0","5awx4ssxx4","2878","Welcome! <p> This experiment involves two parts: demographic information, followed by the experimental task.<p> It will take about 25 minutes to complete both parts.","0","","","","","","",""
"","","","","","survey-text","5","3346569","0.0-5.0","5awx4ssxx4","13341","","{""Age"":""19"",""Gender"":""Female"",""Race/ethnicity"":""African American""}","","","","","","",""
"","","","","","html-slider-response","6","3367986","0.0-6.0","5awx4ssxx4","21412","
                <div style='text-align:center; height: auto; margin-left=-100px; margin-bottom: -20px; font-size:20px; line-height:5px; width: 1200px;'>
                    <br>During this experiment, you will see a series of textures, one at a time, like the ones below: 
                </div>
                    <br>
                    <br>
                    <img src=""anchoring_visual_textures.png"" alt=""img"" style=""max-width:1200px; margin-left: -10px;"">
                </div>
                <div style=""clear: both;""></div>
                </div>
                    <div style='text-align:center; margin-left=-100px; font-size:20px; line-height:20px; width: 1200px; margin-top: -50px;'>
                    
                    <br> For each texture, you will be asked to rate where you think it falls on each of the response scales with the following endpoints:
                    </div>
                            <div style=""text-align: center; width: 1400px; "">
                                <p style=""font-size:20px; line-height:5px; ""><b>Stripey</b> versus <b>Blobby</b></p>
                                <p style=""font-size:20px; line-height:5px; ""><b>Rectangular</b> versus <b>Rounded</b></p>
                                <p style=""font-size:20px;line-height:5px;""><b>Fine</b> versus <b>Coarse</b></p>
                                <p style=""font-size:20px;line-height:5px; ""><b>Smooth</b> versus <b>Rough</b></p>
                                <p style=""font-size:20px;line-height:5px; ""><b>Non-Random</b> versus <b>Random</b></p>
                                <p style=""font-size:20px;line-height:5px;""><b>Soft</b> versus <b>Hard</b></p>
                            </div>
                            <div style='text-align:center; font-size:20px; line-height:20px; width: 1400px;'>
                    
                    Each trial will include one texture and one response scale. You will be asked to make your rating by sliding the cursor along a slider response scale like the one below.
                    <br><br> Before beginning, please look at the textures and scales. For each scale, think about the texture you associate most with the left endpoint. When you see that texture for that response scale, please click near the left of the scale.
                    <br><br> Now, please think about the texture you associate most with the right endpoint of each scale. When you see that texture for that response scale, please click near the right of the scale. 
                    <br><br> If you think a texture is not strongly associated with either endpoint of the scale, please click near the midpoint of the scale. Please use the full range of the scale. 
                    <br><br> You will be asked to rate each texture for a given scale before moving on to the next scale.
                    <br><br> Please press the 'Continue' button for instructions on how to use the slider.                     <br><br>
                ","142","","0","visual_textures_anchoring.png","true","","",""
"","","","","","html-button-response","7","3423198","0.0-7.0","5awx4ssxx4","55210","<div style=""width:1200px; margin-top:-150px;""><p style=""text-align:center; font-size:24px;"">To move the slider, click and drag your cursor to the location of the scale where you would like to make your rating and then let go. <br><br> When you let go of the slider, your response will be recorded and the next trial will begin. <br><br><br>
                We are interested in your initial impressions of each texture and scale, so please go with your first intuition. <br><br>
                Before you begin the experiment, there will be four training trials for you to practice using the scale. <br><br><br><br></div>
                <div style=""width:1200px;""><p style=""text-align:center; font-size:20px;"">When you are ready to start the training trials, please click ""Continue"".</p></div>","0","","","","","","",""
"","","","","","html-slider-response","8","3428878","0.0-8.0-0.0","5awx4ssxx4","NaN","<div style=""width:500px;"">
                                <p style=""font-size:25px;"">Please move the slider all the way to the <br> right endpoint of the scale</p>

                                </div>
                            </div>","200","","0","","true","0","true",""
"","","","","","html-button-response","9","3430741","0.0-8.0-1.0","5awx4ssxx4","1356","<p align='center'><b>Good job!</b> Click on 'Continue' to proceed.</p>","0","","","","","","",""
"","","","","","html-slider-response","10","3432414","0.0-9.0-0.0","5awx4ssxx4","NaN","<div style=""width:500px;"">
                                <p style=""font-size:25px;"">Please move the slider all the way to the <br> left endpoint of the scale</p>

                                </div>
                            </div>","-200","","0","","true","1","true",""
"","","","","","html-button-response","11","3434736","0.0-9.0-1.0","5awx4ssxx4","1813","<p align='center'><b>Good job!</b> Click on 'Continue' to proceed.</p>","0","","","","","","",""
"","","","","","html-slider-response","12","3439948","0.0-10.0-0.0","5awx4ssxx4","NaN","<div style=""width:500px;"">
                                <p style=""font-size:25px;"">Please move the slider halfway between the center and right endpoint of the scale</p>

                                </div>
                            </div>","105","","0","","true","2","true",""
"","","","","","html-button-response","13","3441078","0.0-10.0-1.0","5awx4ssxx4","619","<p align='center'><b>Good job!</b> Click on 'Continue' to proceed.</p>","0","","","","","","",""
"","","","","","html-slider-response","14","3443845","0.0-11.0-0.0","5awx4ssxx4","NaN","<div style=""width:500px;"">
                                <p style=""font-size:25px;"">Please move the slider halfway between the center and left endpoint of the scale</p>

                                </div>
                            </div>","-107","","0","","true","3","true",""
"","","","","","html-button-response","15","3445081","0.0-11.0-1.0","5awx4ssxx4","733","<p align='center'><b>Good job!</b> Click on 'Continue' to proceed.</p>","0","","","","","","",""
"","","","","","html-button-response","16","3446582","0.0-12.0","5awx4ssxx4","1499","<div style=""width:800px; margin-top:-300px;""><p style=""text-align:center; font-size:22px; line-height:25px;""""> Great job! You've completed the practice trials.</div>
                     <div style=""width:800px; margin-top:-20px;""><p style=""text-align:center""><br><br> In the following trials, you will be asked to rate textures on each scale one-by-one. <br> You will be given opportunities to take breaks when you have completed each block of trials. There are six total blocks of trials. <br><br> Please click continue to begin the main task.<br><br><br> </div>","0","","","","","","",""
"","","","","","html-button-response","17","3450402","0.0-13.0","5awx4ssxx4","3818","In the following trials, you will be asked to rate textures on the scale <b>Stripey</b> versus <b>Blobby</b>. Please click 'Continue' when you are ready proceed.","0","","","","","","",""
"","","","","","html-slider-response","18","3454669","0.0-14.0","5awx4ssxx4","NaN","<div style=""width:500px;"">
                                <p style=""font-size:50px; font-weight:bold;""
                                ></p>
                                <div style=""width:240px; margin: auto;"">
                                    <img src=""images/D34.png"" style= ""width:200px""alt=""img"">
                                </div>
                            </div>","200","","0","images/D34.png","","","","[""Stripey"",""Blobby""]"
"","","","","","html-slider-response","19","3456857","0.0-15.0","5awx4ssxx4","NaN","<div style=""width:500px;"">
                                <p style=""font-size:50px; font-weight:bold;""
                                ></p>
                                <div style=""width:240px; margin: auto;"">
                                    <img src=""images/D49.png"" style= ""width:200px""alt=""img"">
                                </div>
                            </div>","-200","","0","images/D49.png","","","","[""Stripey"",""Blobby""]"
"","","","","","html-slider-response","20","3461030","0.0-16.0","5awx4ssxx4","NaN","<div style=""width:500px;"">
                                <p style=""font-size:50px; font-weight:bold;""
                                ></p>
                                <div style=""width:240px; margin: auto;"">
                                    <img src=""images/D103.png"" style= ""width:200px""alt=""img"">
                                </div>
                            </div>","-103","","0","images/D103.png","","","","[""Stripey"",""Blobby""]"
"","","","","","html-slider-response","21","3499839","0.0-17.0","5awx4ssxx4","NaN","<div style=""width:500px;"">
                                <p style=""font-size:50px; font-weight:bold;""
                                ></p>
                                <div style=""width:240px; margin: auto;"">
                                    <img src=""images/D3.png"" style= ""width:200px""alt=""img"">
                                </div>
                            </div>","105","","0","images/D3.png","","","","[""Stripey"",""Blobby""]"
"","","","","","html-slider-response","22","3503477","0.0-18.0","5awx4ssxx4","NaN","<div style=""width:500px;"">
                                <p style=""font-size:50px; font-weight:bold;""
                                ></p>
                                <div style=""width:240px; margin: auto;"">
                                    <img src=""images/D46.png"" style= ""width:200px""alt=""img"">
                                </div>
                            </div>","-98","","0","images/D46.png","","","","[""Stripey"",""Blobby""]"
"","","","","","html-slider-response","23","3506076","0.0-19.0","5awx4ssxx4","NaN","<div style=""width:500px;"">
                                <p style=""font-size:50px; font-weight:bold;""
                                ></p>
                                <div style=""width:240px; margin: auto;"">
                                    <img src=""images/D101.png"" style= ""width:200px""alt=""img"">
                                </div>
                            </div>","102","","0","images/D101.png","","","","[""Stripey"",""Blobby""]"
"","","","","","html-slider-response","24","3519684","0.0-20.0","5awx4ssxx4","NaN","<div style=""width:500px;"">
                                <p style=""font-size:50px; font-weight:bold;""
                                ></p>
                                <div style=""width:240px; margin: auto;"">
                                    <img src=""images/D9.png"" style= ""width:200px""alt=""img"">
                                </div>
                            </div>","200","","0","images/D9.png","","","","[""Stripey"",""Blobby""]"
"","","","","","html-slider-response","25","3525302","0.0-21.0","5awx4ssxx4","NaN","<div style=""width:500px;"">
                                <p style=""font-size:50px; font-weight:bold;""
                                ></p>
                                <div style=""width:240px; margin: auto;"">
                                    <img src=""images/D53.png"" style= ""width:200px""alt=""img"">
                                </div>
                            </div>","-86","","0","images/D53.png","","","","[""Stripey"",""Blobby""]"
"","","","","","html-slider-response","26","3527789","0.0-22.0","5awx4ssxx4","NaN","<div style=""width:500px;"">
                                <p style=""font-size:50px; font-weight:bold;""
                                ></p>
                                <div style=""width:240px; margin: auto;"">
                                    <img src=""images/D32.png"" style= ""width:200px""alt=""img"">
                                </div>
                            </div>","147","","0","images/D32.png","","","","[""Stripey"",""Blobby""]"
"","","","","","html-slider-response","27","3530152","0.0-23.0","5awx4ssxx4","NaN","<div style=""width:500px;"">
                                <p style=""font-size:50px; font-weight:bold;""
                                ></p>
                                <div style=""width:240px; margin: auto;"">
                                    <img src=""images/D35.png"" style= ""width:200px""alt=""img"">
                                </div>
                            </div>","92","","0","images/D35.png","","","","[""Stripey"",""Blobby""]"
"","","","","","html-slider-response","28","3533282","0.0-24.0","5awx4ssxx4","NaN","<div style=""width:500px;"">
                                <p style=""font-size:50px; font-weight:bold;""
                                ></p>
                                <div style=""width:240px; margin: auto;"">
                                    <img src=""images/D65.png"" style= ""width:200px""alt=""img"">
                                </div>
                            </div>","116","","0","images/D65.png","","","","[""Stripey"",""Blobby""]"
"","","","","","html-slider-response","29","3535069","0.0-25.0","5awx4ssxx4","NaN","<div style=""width:500px;"">
                                <p style=""font-size:50px; font-weight:bold;""
                                ></p>
                                <div style=""width:240px; margin: auto;"">
                                    <img src=""images/D102.png"" style= ""width:200px""alt=""img"">
                                </div>
                            </div>","-7","","0","images/D102.png","","","","[""Stripey"",""Blobby""]"
"","","","","","html-slider-response","30","3537295","0.0-26.0","5awx4ssxx4","NaN","<div style=""width:500px;"">
                                <p style=""font-size:50px; font-weight:bold;""
                                ></p>
                                <div style=""width:240px; margin: auto;"">
                                    <img src=""images/D84.png"" style= ""width:200px""alt=""img"">
                                </div>
                            </div>","96","","0","images/D84.png","","","","[""Stripey"",""Blobby""]"
"","","","","","html-slider-response","31","3539298","0.0-27.0","5awx4ssxx4","NaN","<div style=""width:500px;"">
                                <p style=""font-size:50px; font-weight:bold;""
                                ></p>
                                <div style=""width:240px; margin: auto;"">
                                    <img src=""images/D105.png"" style= ""width:200px""alt=""img"">
                                </div>
                            </div>","-200","","0","images/D105.png","","","","[""Stripey"",""Blobby""]"
"","","","","","html-slider-response","32","3542296","0.0-28.0","5awx4ssxx4","NaN","<div style=""width:500px;"">
                                <p style=""font-size:50px; font-weight:bold;""
                                ></p>
                                <div style=""width:240px; margin: auto;"">
                                    <img src=""images/D29.png"" style= ""width:200px""alt=""img"">
                                </div>
                            </div>","156","","0","images/D29.png","","","","[""Stripey"",""Blobby""]"
"","","","","","html-slider-response","33","3545520","0.0-29.0","5awx4ssxx4","NaN","<div style=""width:500px;"">
                                <p style=""font-size:50px; font-weight:bold;""
                                ></p>
                                <div style=""width:240px; margin: auto;"">
                                    <img src=""images/D76.png"" style= ""width:200px""alt=""img"">
                                </div>
                            </div>","-200","","0","images/D76.png","","","","[""Stripey"",""Blobby""]"
"","","","","","html-slider-response","34","3547477","0.0-30.0","5awx4ssxx4","NaN","<div style=""width:500px;"">
                                <p style=""font-size:50px; font-weight:bold;""
                                ></p>
                                <div style=""width:240px; margin: auto;"">
                                    <img src=""images/D16.png"" style= ""width:200px""alt=""img"">
                                </div>
                            </div>","-200","","0","images/D16.png","","","","[""Stripey"",""Blobby""]"
"","","","","","html-slider-response","35","3553152","0.0-31.0","5awx4ssxx4","NaN","<div style=""width:500px;"">
                                <p style=""font-size:50px; font-weight:bold;""
                                ></p>
                                <div style=""width:240px; margin: auto;"">
                                    <img src=""images/D17.png"" style= ""width:200px""alt=""img"">
                                </div>
                            </div>","115","","0","images/D17.png","","","","[""Stripey"",""Blobby""]"
"","","","","","html-slider-response","36","3580928","0.0-32.0","5awx4ssxx4","NaN","<div style=""width:500px;"">
                                <p style=""font-size:50px; font-weight:bold;""
                                ></p>
                                <div style=""width:240px; margin: auto;"">
                                    <img src=""images/D52.png"" style= ""width:200px""alt=""img"">
                                </div>
                            </div>","114","","0","images/D52.png","","","","[""Stripey"",""Blobby""]"
"","","","","","html-slider-response","37","3586720","0.0-33.0","5awx4ssxx4","NaN","<div style=""width:500px;"">
                                <p style=""font-size:50px; font-weight:bold;""
                                ></p>
                                <div style=""width:240px; margin: auto;"">
                                    <img src=""images/D64.png"" style= ""width:200px""alt=""img"">
                                </div>
                            </div>","-98","","0","images/D64.png","","","","[""Stripey"",""Blobby""]"
"","","","","","html-slider-response","38","3589816","0.0-34.0","5awx4ssxx4","NaN","<div style=""width:500px;"">
                                <p style=""font-size:50px; font-weight:bold;""
                                ></p>
                                <div style=""width:240px; margin: auto;"">
                                    <img src=""images/D95.png"" style= ""width:200px""alt=""img"">
                                </div>
                            </div>","74","","0","images/D95.png","","","","[""Stripey"",""Blobby""]"
"","","","","","html-slider-response","39","3592849","0.0-35.0","5awx4ssxx4","NaN","<div style=""width:500px;"">
                                <p style=""font-size:50px; font-weight:bold;""
                                ></p>
                                <div style=""width:240px; margin: auto;"">
                                    <img src=""images/D78.png"" style= ""width:200px""alt=""img"">
                                </div>
                            </div>","-97","","0","images/D78.png","","","","[""Stripey"",""Blobby""]"
"","","","","","html-slider-response","40","3594880","0.0-36.0","5awx4ssxx4","NaN","<div style=""width:500px;"">
                                <p style=""font-size:50px; font-weight:bold;""
                                ></p>
                                <div style=""width:240px; margin: auto;"">
                                    <img src=""images/D106.png"" style= ""width:200px""alt=""img"">
                                </div>
                            </div>","-200","","0","images/D106.png","","","","[""Stripey"",""Blobby""]"
"","","","","","html-slider-response","41","3599168","0.0-37.0","5awx4ssxx4","NaN","<div style=""width:500px;"">
                                <p style=""font-size:50px; font-weight:bold;""
                                ></p>
                                <div style=""width:240px; margin: auto;"">
                                    <img src=""images/D96.png"" style= ""width:200px""alt=""img"">
                                </div>
                            </div>","102","","0","images/D96.png","","","","[""Stripey"",""Blobby""]"
"","","","","","html-slider-response","42","3601050","0.0-38.0","5awx4ssxx4","NaN","<div style=""width:500px;"">
                                <p style=""font-size:50px; font-weight:bold;""
                                ></p>
                                <div style=""width:240px; margin: auto;"">
                                    <img src=""images/D75.png"" style= ""width:200px""alt=""img"">
                                </div>
                            </div>","200","","0","images/D75.png","","","","[""Stripey"",""Blobby""]"
"","","","","","html-slider-response","43","3602838","0.0-39.0","5awx4ssxx4","NaN","<div style=""width:500px;"">
                                <p style=""font-size:50px; font-weight:bold;""
                                ></p>
                                <div style=""width:240px; margin: auto;"">
                                    <img src=""images/D56.png"" style= ""width:200px""alt=""img"">
                                </div>
                            </div>","200","","0","images/D56.png","","","","[""Stripey"",""Blobby""]"
"","","","","","html-slider-response","44","3605372","0.0-40.0","5awx4ssxx4","NaN","<div style=""width:500px;"">
                                <p style=""font-size:50px; font-weight:bold;""
                                ></p>
                                <div style=""width:240px; margin: auto;"">
                                    <img src=""images/D47.png"" style= ""width:200px""alt=""img"">
                                </div>
                            </div>","-106","","0","images/D47.png","","","","[""Stripey"",""Blobby""]"
"","","","","","html-slider-response","45","3608999","0.0-41.0","5awx4ssxx4","NaN","<div style=""width:500px;"">
                                <p style=""font-size:50px; font-weight:bold;""
                                ></p>
                                <div style=""width:240px; margin: auto;"">
                                    <img src=""images/D8.png"" style= ""width:200px""alt=""img"">
                                </div>
                            </div>","200","","0","images/D8.png","","","","[""Stripey"",""Blobby""]"
"","","","","","html-slider-response","46","3657086","0.0-42.0","5awx4ssxx4","NaN","<div style=""width:500px;"">
                                <p style=""font-size:50px; font-weight:bold;""
                                ></p>
                                <div style=""width:240px; margin: auto;"">
                                    <img src=""images/D80.png"" style= ""width:200px""alt=""img"">
                                </div>
                            </div>","122","","0","images/D80.png","","","","[""Stripey"",""Blobby""]"
"","","","","","html-slider-response","47","3665384","0.0-43.0","5awx4ssxx4","NaN","<div style=""width:500px;"">
                                <p style=""font-size:50px; font-weight:bold;""
                                ></p>
                                <div style=""width:240px; margin: auto;"">
                                    <img src=""images/D111.png"" style= ""width:200px""alt=""img"">
                                </div>
                            </div>","200","","0","images/D111.png","","","","[""Stripey"",""Blobby""]"
"","","","","","html-slider-response","48","3683604","0.0-44.0","5awx4ssxx4","NaN","<div style=""width:500px;"">
                                <p style=""font-size:50px; font-weight:bold;""
                                ></p>
                                <div style=""width:240px; margin: auto;"">
                                    <img src=""images/D14.png"" style= ""width:200px""alt=""img"">
                                </div>
                            </div>","-95","","0","images/D14.png","","","","[""Stripey"",""Blobby""]"
"","","","","","html-slider-response","49","3686157","0.0-45.0","5awx4ssxx4","NaN","<div style=""width:500px;"">
                                <p style=""font-size:50px; font-weight:bold;""
                                ></p>
                                <div style=""width:240px; margin: auto;"">
                                    <img src=""images/D79.png"" style= ""width:200px""alt=""img"">
                                </div>
                            </div>","-102","","0","images/D79.png","","","","[""Stripey"",""Blobby""]"
"","","","","","html-slider-response","50","3689418","0.0-46.0","5awx4ssxx4","NaN","<div style=""width:500px;"">
                                <p style=""font-size:50px; font-weight:bold;""
                                ></p>
                                <div style=""width:240px; margin: auto;"">
                                    <img src=""images/D51.png"" style= ""width:200px""alt=""img"">
                                </div>
                            </div>","-200","","0","images/D51.png","","","","[""Stripey"",""Blobby""]"
"","","","","","html-slider-response","51","3692180","0.0-47.0","5awx4ssxx4","NaN","<div style=""width:500px;"">
                                <p style=""font-size:50px; font-weight:bold;""
                                ></p>
                                <div style=""width:240px; margin: auto;"">
                                    <img src=""images/D74.png"" style= ""width:200px""alt=""img"">
                                </div>
                            </div>","200","","0","images/D74.png","","","","[""Stripey"",""Blobby""]"
"","","","","","html-slider-response","52","3697196","0.0-48.0","5awx4ssxx4","NaN","<div style=""width:500px;"">
                                <p style=""font-size:50px; font-weight:bold;""
                                ></p>
                                <div style=""width:240px; margin: auto;"">
                                    <img src=""images/D1.png"" style= ""width:200px""alt=""img"">
                                </div>
                            </div>","153","","0","images/D1.png","","","","[""Stripey"",""Blobby""]"
"","","","","","html-slider-response","53","3699519","0.0-49.0","5awx4ssxx4","NaN","<div style=""width:500px;"">
                                <p style=""font-size:50px; font-weight:bold;""
                                ></p>
                                <div style=""width:240px; margin: auto;"">
                                    <img src=""images/D66.png"" style= ""width:200px""alt=""img"">
                                </div>
                            </div>","160","","0","images/D66.png","","","","[""Stripey"",""Blobby""]"
"","","","","","html-slider-response","54","3702601","0.0-50.0","5awx4ssxx4","NaN","<div style=""width:500px;"">
                                <p style=""font-size:50px; font-weight:bold;""
                                ></p>
                                <div style=""width:240px; margin: auto;"">
                                    <img src=""images/D25.png"" style= ""width:200px""alt=""img"">
                                </div>
                            </div>","-90","","0","images/D25.png","","","","[""Stripey"",""Blobby""]"
"","","","","","html-slider-response","55","3704957","0.0-51.0","5awx4ssxx4","NaN","<div style=""width:500px;"">
                                <p style=""font-size:50px; font-weight:bold;""
                                ></p>
                                <div style=""width:240px; margin: auto;"">
                                    <img src=""images/D11.png"" style= ""width:200px""alt=""img"">
                                </div>
                            </div>","-113","","0","images/D11.png","","","","[""Stripey"",""Blobby""]"
"","","","","","html-slider-response","56","3706563","0.0-52.0","5awx4ssxx4","NaN","<div style=""width:500px;"">
                                <p style=""font-size:50px; font-weight:bold;""
                                ></p>
                                <div style=""width:240px; margin: auto;"">
                                    <img src=""images/D19.png"" style= ""width:200px""alt=""img"">
                                </div>
                            </div>","200","","0","images/D19.png","","","","[""Stripey"",""Blobby""]"
"","","","","","html-slider-response","57","3708957","0.0-53.0","5awx4ssxx4","NaN","<div style=""width:500px;"">
                                <p style=""font-size:50px; font-weight:bold;""
                                ></p>
                                <div style=""width:240px; margin: auto;"">
                                    <img src=""images/D83.png"" style= ""width:200px""alt=""img"">
                                </div>
                            </div>","-94","","0","images/D83.png","","","","[""Stripey"",""Blobby""]"
"","","","","","html-slider-response","58","3710800","0.0-54.0","5awx4ssxx4","NaN","<div style=""width:500px;"">
                                <p style=""font-size:50px; font-weight:bold;""
                                ></p>
                                <div style=""width:240px; margin: auto;"">
                                    <img src=""images/D92.png"" style= ""width:200px""alt=""img"">
                                </div>
                            </div>","200","","0","images/D92.png","","","","[""Stripey"",""Blobby""]"
"","","","","","html-slider-response","59","3718678","0.0-55.0","5awx4ssxx4","NaN","<div style=""width:500px;"">
                                <p style=""font-size:50px; font-weight:bold;""
                                ></p>
                                <div style=""width:240px; margin: auto;"">
                                    <img src=""images/D81.png"" style= ""width:200px""alt=""img"">
                                </div>
                            </div>","200","","0","images/D81.png","","","","[""Stripey"",""Blobby""]"
"","","","","","html-slider-response","60","3721678","0.0-56.0","5awx4ssxx4","NaN","<div style=""width:500px;"">
                                <p style=""font-size:50px; font-weight:bold;""
                                ></p>
                                <div style=""width:240px; margin: auto;"">
                                    <img src=""images/D24.png"" style= ""width:200px""alt=""img"">
                                </div>
                            </div>","13","","0","images/D24.png","","","","[""Stripey"",""Blobby""]"
"","","","","","html-slider-response","61","3736615","0.0-57.0","5awx4ssxx4","NaN","<div style=""width:500px;"">
                                <p style=""font-size:50px; font-weight:bold;""
                                ></p>
                                <div style=""width:240px; margin: auto;"">
                                    <img src=""images/D20.png"" style= ""width:200px""alt=""img"">
                                </div>
                            </div>","-90","","0","images/D20.png","","","","[""Stripey"",""Blobby""]"
"","","","","","html-slider-response","62","3739741","0.0-58.0","5awx4ssxx4","NaN","<div style=""width:500px;"">
                                <p style=""font-size:50px; font-weight:bold;""
                                ></p>
                                <div style=""width:240px; margin: auto;"">
                                    <img src=""images/D55.png"" style= ""width:200px""alt=""img"">
                                </div>
                            </div>","95","","0","images/D55.png","","","","[""Stripey"",""Blobby""]"
"","","","","","html-slider-response","63","3742106","0.0-59.0","5awx4ssxx4","NaN","<div style=""width:500px;"">
                                <p style=""font-size:50px; font-weight:bold;""
                                ></p>
                                <div style=""width:240px; margin: auto;"">
                                    <img src=""images/D57.png"" style= ""width:200px""alt=""img"">
                                </div>
                            </div>","120","","0","images/D57.png","","","","[""Stripey"",""Blobby""]"
"","","","","","html-slider-response","64","3746580","0.0-60.0","5awx4ssxx4","NaN","<div style=""width:500px;"">
                                <p style=""font-size:50px; font-weight:bold;""
                                ></p>
                                <div style=""width:240px; margin: auto;"">
                                    <img src=""images/D48.png"" style= ""width:200px""alt=""img"">
                                </div>
                            </div>","118","","0","images/D48.png","","","","[""Stripey"",""Blobby""]"
"","","","","","html-slider-response","65","3752113","0.0-61.0","5awx4ssxx4","NaN","<div style=""width:500px;"">
                                <p style=""font-size:50px; font-weight:bold;""
                                ></p>
                                <div style=""width:240px; margin: auto;"">
                                    <img src=""images/D6.png"" style= ""width:200px""alt=""img"">
                                </div>
                            </div>","110","","0","images/D6.png","","","","[""Stripey"",""Blobby""]"
"","","","","","html-slider-response","66","3755529","0.0-62.0","5awx4ssxx4","NaN","<div style=""width:500px;"">
                                <p style=""font-size:50px; font-weight:bold;""
                                ></p>
                                <div style=""width:240px; margin: auto;"">
                                    <img src=""images/D18.png"" style= ""width:200px""alt=""img"">
                                </div>
                            </div>","117","","0","images/D18.png","","","","[""Stripey"",""Blobby""]"
"","","","","","html-slider-response","67","3763661","0.0-63.0","5awx4ssxx4","NaN","<div style=""width:500px;"">
                                <p style=""font-size:50px; font-weight:bold;""
                                ></p>
                                <div style=""width:240px; margin: auto;"">
                                    <img src=""images/D87.png"" style= ""width:200px""alt=""img"">
                                </div>
                            </div>","111","","0","images/D87.png","","","","[""Stripey"",""Blobby""]"
"","","","","","html-slider-response","68","3766766","0.0-64.0","5awx4ssxx4","NaN","<div style=""width:500px;"">
                                <p style=""font-size:50px; font-weight:bold;""
                                ></p>
                                <div style=""width:240px; margin: auto;"">
                                    <img src=""images/D85.png"" style= ""width:200px""alt=""img"">
                                </div>
                            </div>","-113","","0","images/D85.png","","","","[""Stripey"",""Blobby""]"
"","","","","","html-slider-response","69","3769367","0.0-65.0","5awx4ssxx4","NaN","<div style=""width:500px;"">
                                <p style=""font-size:50px; font-weight:bold;""
                                ></p>
                                <div style=""width:240px; margin: auto;"">
                                    <img src=""images/D104.png"" style= ""width:200px""alt=""img"">
                                </div>
                            </div>","117","","0","images/D104.png","","","","[""Stripey"",""Blobby""]"
"","","","","","html-slider-response","70","3775333","0.0-66.0","5awx4ssxx4","NaN","<div style=""width:500px;"">
                                <p style=""font-size:50px; font-weight:bold;""
                                ></p>
                                <div style=""width:240px; margin: auto;"">
                                    <img src=""images/D37.png"" style= ""width:200px""alt=""img"">
                                </div>
                            </div>","-112","","0","images/D37.png","","","","[""Stripey"",""Blobby""]"
"","","","","","html-slider-response","71","3777962","0.0-67.0","5awx4ssxx4","NaN","<div style=""width:500px;"">
                                <p style=""font-size:50px; font-weight:bold;""
                                ></p>
                                <div style=""width:240px; margin: auto;"">
                                    <img src=""images/D26.png"" style= ""width:200px""alt=""img"">
                                </div>
                            </div>","-72","","0","images/D26.png","","","","[""Stripey"",""Blobby""]"
"","","","","","html-slider-response","72","3779812","0.0-68.0","5awx4ssxx4","NaN","<div style=""width:500px;"">
                                <p style=""font-size:50px; font-weight:bold;""
                                ></p>
                                <div style=""width:240px; margin: auto;"">
                                    <img src=""images/D4.png"" style= ""width:200px""alt=""img"">
                                </div>
                            </div>","200","","0","images/D4.png","","","","[""Stripey"",""Blobby""]"
"","","","","","html-slider-response","73","3781813","0.0-69.0","5awx4ssxx4","NaN","<div style=""width:500px;"">
                                <p style=""font-size:50px; font-weight:bold;""
                                ></p>
                                <div style=""width:240px; margin: auto;"">
                                    <img src=""images/D36.png"" style= ""width:200px""alt=""img"">
                                </div>
                            </div>","200","","0","images/D36.png","","","","[""Stripey"",""Blobby""]"
"","","","","","html-slider-response","74","3784340","0.0-70.0","5awx4ssxx4","NaN","<div style=""width:500px;"">
                                <p style=""font-size:50px; font-weight:bold;""
                                ></p>
                                <div style=""width:240px; margin: auto;"">
                                    <img src=""images/D94.png"" style= ""width:200px""alt=""img"">
                                </div>
                            </div>","102","","0","images/D94.png","","","","[""Stripey"",""Blobby""]"
"","","","","","html-slider-response","75","3787599","0.0-71.0","5awx4ssxx4","NaN","<div style=""width:500px;"">
                                <p style=""font-size:50px; font-weight:bold;""
                                ></p>
                                <div style=""width:240px; margin: auto;"">
                                    <img src=""images/D22.png"" style= ""width:200px""alt=""img"">
                                </div>
                            </div>","200","","0","images/D22.png","","","","[""Stripey"",""Blobby""]"
"","","","","","html-slider-response","76","3791491","0.0-72.0","5awx4ssxx4","NaN","<div style=""width:500px;"">
                                <p style=""font-size:50px; font-weight:bold;""
                                ></p>
                                <div style=""width:240px; margin: auto;"">
                                    <img src=""images/D82.png"" style= ""width:200px""alt=""img"">
                                </div>
                            </div>","200","","0","images/D82.png","","","","[""Stripey"",""Blobby""]"
"","","","","","html-slider-response","77","3794310","0.0-73.0","5awx4ssxx4","NaN","<div style=""width:500px;"">
                                <p style=""font-size:50px; font-weight:bold;""
                                ></p>
                                <div style=""width:240px; margin: auto;"">
                                    <img src=""images/D21.png"" style= ""width:200px""alt=""img"">
                                </div>
                            </div>","111","","0","images/D21.png","","","","[""Stripey"",""Blobby""]"
"","","","","","html-slider-response","78","3796489","0.0-74.0","5awx4ssxx4","NaN","<div style=""width:500px;"">
                                <p style=""font-size:50px; font-weight:bold;""
                                ></p>
                                <div style=""width:240px; margin: auto;"">
                                    <img src=""images/D68.png"" style= ""width:200px""alt=""img"">
                                </div>
                            </div>","-104","","0","images/D68.png","","","","[""Stripey"",""Blobby""]"
"","","","","","html-slider-response","79","3799290","0.0-75.0","5awx4ssxx4","NaN","<div style=""width:500px;"">
                                <p style=""font-size:50px; font-weight:bold;""
                                ></p>
                                <div style=""width:240px; margin: auto;"">
                                    <img src=""images/D77.png"" style= ""width:200px""alt=""img"">
                                </div>
                            </div>","104","","0","images/D77.png","","","","[""Stripey"",""Blobby""]"
"","","","","","html-button-response","80","3804699","0.0-76.0","5awx4ssxx4","4901","You have completed the first block of trials out of six. Please click 'Continue' when you are ready proceed.","0","","","","","","",""
"","","","","","html-button-response","81","3807250","0.0-77.0","5awx4ssxx4","2549","In the following trials, you will be asked to rate textures on the scale <b>Fine</b> versus <b>Coarse</b>. Please click 'Continue' when you are ready proceed.","0","","","","","","",""
"","","","","","html-slider-response","82","3868597","0.0-78.0","5awx4ssxx4","NaN","<div style=""width:500px;"">
                                <p style=""font-size:50px; font-weight:bold;""
                                ></p>
                                <div style=""width:240px; margin: auto;"">
                                    <img src=""images/D34.png"" style= ""width:200px""alt=""img"">
                                </div>
                            </div>","-107","","0","images/D34.png","","","","[""Fine"",""Coarse""]"
"","","","","","html-slider-response","83","3873002","0.0-79.0","5awx4ssxx4","NaN","<div style=""width:500px;"">
                                <p style=""font-size:50px; font-weight:bold;""
                                ></p>
                                <div style=""width:240px; margin: auto;"">
                                    <img src=""images/D49.png"" style= ""width:200px""alt=""img"">
                                </div>
                            </div>","118","","0","images/D49.png","","","","[""Fine"",""Coarse""]"
"","","","","","html-slider-response","84","3875345","0.0-80.0","5awx4ssxx4","NaN","<div style=""width:500px;"">
                                <p style=""font-size:50px; font-weight:bold;""
                                ></p>
                                <div style=""width:240px; margin: auto;"">
                                    <img src=""images/D103.png"" style= ""width:200px""alt=""img"">
                                </div>
                            </div>","-86","","0","images/D103.png","","","","[""Fine"",""Coarse""]"
"","","","","","html-slider-response","85","3976710","0.0-81.0","5awx4ssxx4","NaN","<div style=""width:500px;"">
                                <p style=""font-size:50px; font-weight:bold;""
                                ></p>
                                <div style=""width:240px; margin: auto;"">
                                    <img src=""images/D3.png"" style= ""width:200px""alt=""img"">
                                </div>
                            </div>","2","","0","images/D3.png","","","","[""Fine"",""Coarse""]"
"","","","","","html-slider-response","86","3980795","0.0-82.0","5awx4ssxx4","NaN","<div style=""width:500px;"">
                                <p style=""font-size:50px; font-weight:bold;""
                                ></p>
                                <div style=""width:240px; margin: auto;"">
                                    <img src=""images/D46.png"" style= ""width:200px""alt=""img"">
                                </div>
                            </div>","114","","0","images/D46.png","","","","[""Fine"",""Coarse""]"
"","","","","","html-slider-response","87","3983264","0.0-83.0","5awx4ssxx4","NaN","<div style=""width:500px;"">
                                <p style=""font-size:50px; font-weight:bold;""
                                ></p>
                                <div style=""width:240px; margin: auto;"">
                                    <img src=""images/D101.png"" style= ""width:200px""alt=""img"">
                                </div>
                            </div>","-99","","0","images/D101.png","","","","[""Fine"",""Coarse""]"
"","","","","","html-slider-response","88","3985197","0.0-84.0","5awx4ssxx4","NaN","<div style=""width:500px;"">
                                <p style=""font-size:50px; font-weight:bold;""
                                ></p>
                                <div style=""width:240px; margin: auto;"">
                                    <img src=""images/D9.png"" style= ""width:200px""alt=""img"">
                                </div>
                            </div>","102","","0","images/D9.png","","","","[""Fine"",""Coarse""]"
"","","","","","html-slider-response","89","3998259","0.0-85.0","5awx4ssxx4","NaN","<div style=""width:500px;"">
                                <p style=""font-size:50px; font-weight:bold;""
                                ></p>
                                <div style=""width:240px; margin: auto;"">
                                    <img src=""images/D53.png"" style= ""width:200px""alt=""img"">
                                </div>
                            </div>","-93","","0","images/D53.png","","","","[""Fine"",""Coarse""]"
"","","","","","html-slider-response","90","4002393","0.0-86.0","5awx4ssxx4","NaN","<div style=""width:500px;"">
                                <p style=""font-size:50px; font-weight:bold;""
                                ></p>
                                <div style=""width:240px; margin: auto;"">
                                    <img src=""images/D32.png"" style= ""width:200px""alt=""img"">
                                </div>
                            </div>","-104","","0","images/D32.png","","","","[""Fine"",""Coarse""]"
"","","","","","html-slider-response","91","4172529","0.0-87.0","5awx4ssxx4","NaN","<div style=""width:500px;"">
                                <p style=""font-size:50px; font-weight:bold;""
                                ></p>
                                <div style=""width:240px; margin: auto;"">
                                    <img src=""images/D35.png"" style= ""width:200px""alt=""img"">
                                </div>
                            </div>","96","","0","images/D35.png","","","","[""Fine"",""Coarse""]"
"","","","","","html-slider-response","92","4174346","0.0-88.0","5awx4ssxx4","NaN","<div style=""width:500px;"">
                                <p style=""font-size:50px; font-weight:bold;""
                                ></p>
                                <div style=""width:240px; margin: auto;"">
                                    <img src=""images/D65.png"" style= ""width:200px""alt=""img"">
                                </div>
                            </div>","137","","0","images/D65.png","","","","[""Fine"",""Coarse""]"
"","","","","","html-slider-response","93","4176016","0.0-89.0","5awx4ssxx4","NaN","<div style=""width:500px;"">
                                <p style=""font-size:50px; font-weight:bold;""
                                ></p>
                                <div style=""width:240px; margin: auto;"">
                                    <img src=""images/D102.png"" style= ""width:200px""alt=""img"">
                                </div>
                            </div>","113","","0","images/D102.png","","","","[""Fine"",""Coarse""]"
"","","","","","html-slider-response","94","4178935","0.0-90.0","5awx4ssxx4","NaN","<div style=""width:500px;"">
                                <p style=""font-size:50px; font-weight:bold;""
                                ></p>
                                <div style=""width:240px; margin: auto;"">
                                    <img src=""images/D84.png"" style= ""width:200px""alt=""img"">
                                </div>
                            </div>","-110","","0","images/D84.png","","","","[""Fine"",""Coarse""]"
"","","","","","html-slider-response","95","4182382","0.0-91.0","5awx4ssxx4","NaN","<div style=""width:500px;"">
                                <p style=""font-size:50px; font-weight:bold;""
                                ></p>
                                <div style=""width:240px; margin: auto;"">
                                    <img src=""images/D105.png"" style= ""width:200px""alt=""img"">
                                </div>
                            </div>","-107","","0","images/D105.png","","","","[""Fine"",""Coarse""]"
"","","","","","html-slider-response","96","4184198","0.0-92.0","5awx4ssxx4","NaN","<div style=""width:500px;"">
                                <p style=""font-size:50px; font-weight:bold;""
                                ></p>
                                <div style=""width:240px; margin: auto;"">
                                    <img src=""images/D29.png"" style= ""width:200px""alt=""img"">
                                </div>
                            </div>","118","","0","images/D29.png","","","","[""Fine"",""Coarse""]"
"","","","","","html-slider-response","97","4186607","0.0-93.0","5awx4ssxx4","NaN","<div style=""width:500px;"">
                                <p style=""font-size:50px; font-weight:bold;""
                                ></p>
                                <div style=""width:240px; margin: auto;"">
                                    <img src=""images/D76.png"" style= ""width:200px""alt=""img"">
                                </div>
                            </div>","98","","0","images/D76.png","","","","[""Fine"",""Coarse""]"
"","","","","","html-slider-response","98","4188268","0.0-94.0","5awx4ssxx4","NaN","<div style=""width:500px;"">
                                <p style=""font-size:50px; font-weight:bold;""
                                ></p>
                                <div style=""width:240px; margin: auto;"">
                                    <img src=""images/D16.png"" style= ""width:200px""alt=""img"">
                                </div>
                            </div>","-122","","0","images/D16.png","","","","[""Fine"",""Coarse""]"
"","","","","","html-slider-response","99","4191245","0.0-95.0","5awx4ssxx4","NaN","<div style=""width:500px;"">
                                <p style=""font-size:50px; font-weight:bold;""
                                ></p>
                                <div style=""width:240px; margin: auto;"">
                                    <img src=""images/D17.png"" style= ""width:200px""alt=""img"">
                                </div>
                            </div>","-108","","0","images/D17.png","","","","[""Fine"",""Coarse""]"
"","","","","","html-slider-response","100","4192859","0.0-96.0","5awx4ssxx4","NaN","<div style=""width:500px;"">
                                <p style=""font-size:50px; font-weight:bold;""
                                ></p>
                                <div style=""width:240px; margin: auto;"">
                                    <img src=""images/D52.png"" style= ""width:200px""alt=""img"">
                                </div>
                            </div>","-115","","0","images/D52.png","","","","[""Fine"",""Coarse""]"
"","","","","","html-slider-response","101","4207001","0.0-97.0","5awx4ssxx4","NaN","<div style=""width:500px;"">
                                <p style=""font-size:50px; font-weight:bold;""
                                ></p>
                                <div style=""width:240px; margin: auto;"">
                                    <img src=""images/D64.png"" style= ""width:200px""alt=""img"">
                                </div>
                            </div>","104","","0","images/D64.png","","","","[""Fine"",""Coarse""]"
"","","","","","html-slider-response","102","4208403","0.0-98.0","5awx4ssxx4","NaN","<div style=""width:500px;"">
                                <p style=""font-size:50px; font-weight:bold;""
                                ></p>
                                <div style=""width:240px; margin: auto;"">
                                    <img src=""images/D95.png"" style= ""width:200px""alt=""img"">
                                </div>
                            </div>","200","","0","images/D95.png","","","","[""Fine"",""Coarse""]"
"","","","","","html-slider-response","103","4210015","0.0-99.0","5awx4ssxx4","NaN","<div style=""width:500px;"">
                                <p style=""font-size:50px; font-weight:bold;""
                                ></p>
                                <div style=""width:240px; margin: auto;"">
                                    <img src=""images/D78.png"" style= ""width:200px""alt=""img"">
                                </div>
                            </div>","-100","","0","images/D78.png","","","","[""Fine"",""Coarse""]"
"","","","","","html-slider-response","104","4211564","0.0-100.0","5awx4ssxx4","NaN","<div style=""width:500px;"">
                                <p style=""font-size:50px; font-weight:bold;""
                                ></p>
                                <div style=""width:240px; margin: auto;"">
                                    <img src=""images/D106.png"" style= ""width:200px""alt=""img"">
                                </div>
                            </div>","-89","","0","images/D106.png","","","","[""Fine"",""Coarse""]"
"","","","","","html-slider-response","105","4213106","0.0-101.0","5awx4ssxx4","NaN","<div style=""width:500px;"">
                                <p style=""font-size:50px; font-weight:bold;""
                                ></p>
                                <div style=""width:240px; margin: auto;"">
                                    <img src=""images/D96.png"" style= ""width:200px""alt=""img"">
                                </div>
                            </div>","179","","0","images/D96.png","","","","[""Fine"",""Coarse""]"
"","","","","","html-slider-response","106","4216906","0.0-102.0","5awx4ssxx4","NaN","<div style=""width:500px;"">
                                <p style=""font-size:50px; font-weight:bold;""
                                ></p>
                                <div style=""width:240px; margin: auto;"">
                                    <img src=""images/D75.png"" style= ""width:200px""alt=""img"">
                                </div>
                            </div>","134","","0","images/D75.png","","","","[""Fine"",""Coarse""]"
"","","","","","html-slider-response","107","4219742","0.0-103.0","5awx4ssxx4","NaN","<div style=""width:500px;"">
                                <p style=""font-size:50px; font-weight:bold;""
                                ></p>
                                <div style=""width:240px; margin: auto;"">
                                    <img src=""images/D56.png"" style= ""width:200px""alt=""img"">
                                </div>
                            </div>","-97","","0","images/D56.png","","","","[""Fine"",""Coarse""]"
"","","","","","html-slider-response","108","4332373","0.0-104.0","5awx4ssxx4","NaN","<div style=""width:500px;"">
                                <p style=""font-size:50px; font-weight:bold;""
                                ></p>
                                <div style=""width:240px; margin: auto;"">
                                    <img src=""images/D47.png"" style= ""width:200px""alt=""img"">
                                </div>
                            </div>","120","","0","images/D47.png","","","","[""Fine"",""Coarse""]"
"","","","","","html-slider-response","109","4334639","0.0-105.0","5awx4ssxx4","NaN","<div style=""width:500px;"">
                                <p style=""font-size:50px; font-weight:bold;""
                                ></p>
                                <div style=""width:240px; margin: auto;"">
                                    <img src=""images/D8.png"" style= ""width:200px""alt=""img"">
                                </div>
                            </div>","116","","0","images/D8.png","","","","[""Fine"",""Coarse""]"
"","","","","","html-slider-response","110","4336620","0.0-106.0","5awx4ssxx4","NaN","<div style=""width:500px;"">
                                <p style=""font-size:50px; font-weight:bold;""
                                ></p>
                                <div style=""width:240px; margin: auto;"">
                                    <img src=""images/D80.png"" style= ""width:200px""alt=""img"">
                                </div>
                            </div>","200","","0","images/D80.png","","","","[""Fine"",""Coarse""]"
"","","","","","html-slider-response","111","4339107","0.0-107.0","5awx4ssxx4","NaN","<div style=""width:500px;"">
                                <p style=""font-size:50px; font-weight:bold;""
                                ></p>
                                <div style=""width:240px; margin: auto;"">
                                    <img src=""images/D111.png"" style= ""width:200px""alt=""img"">
                                </div>
                            </div>","200","","0","images/D111.png","","","","[""Fine"",""Coarse""]"
"","","","","","html-slider-response","112","4341019","0.0-108.0","5awx4ssxx4","NaN","<div style=""width:500px;"">
                                <p style=""font-size:50px; font-weight:bold;""
                                ></p>
                                <div style=""width:240px; margin: auto;"">
                                    <img src=""images/D14.png"" style= ""width:200px""alt=""img"">
                                </div>
                            </div>","108","","0","images/D14.png","","","","[""Fine"",""Coarse""]"
"","","","","","html-slider-response","113","4343074","0.0-109.0","5awx4ssxx4","NaN","<div style=""width:500px;"">
                                <p style=""font-size:50px; font-weight:bold;""
                                ></p>
                                <div style=""width:240px; margin: auto;"">
                                    <img src=""images/D79.png"" style= ""width:200px""alt=""img"">
                                </div>
                            </div>","-97","","0","images/D79.png","","","","[""Fine"",""Coarse""]"
"","","","","","html-slider-response","114","4344731","0.0-110.0","5awx4ssxx4","NaN","<div style=""width:500px;"">
                                <p style=""font-size:50px; font-weight:bold;""
                                ></p>
                                <div style=""width:240px; margin: auto;"">
                                    <img src=""images/D51.png"" style= ""width:200px""alt=""img"">
                                </div>
                            </div>","-100","","0","images/D51.png","","","","[""Fine"",""Coarse""]"
"","","","","","html-slider-response","115","4346396","0.0-111.0","5awx4ssxx4","NaN","<div style=""width:500px;"">
                                <p style=""font-size:50px; font-weight:bold;""
                                ></p>
                                <div style=""width:240px; margin: auto;"">
                                    <img src=""images/D74.png"" style= ""width:200px""alt=""img"">
                                </div>
                            </div>","125","","0","images/D74.png","","","","[""Fine"",""Coarse""]"
"","","","","","html-slider-response","116","4347762","0.0-112.0","5awx4ssxx4","NaN","<div style=""width:500px;"">
                                <p style=""font-size:50px; font-weight:bold;""
                                ></p>
                                <div style=""width:240px; margin: auto;"">
                                    <img src=""images/D1.png"" style= ""width:200px""alt=""img"">
                                </div>
                            </div>","142","","0","images/D1.png","","","","[""Fine"",""Coarse""]"
"","","","","","html-slider-response","117","4349621","0.0-113.0","5awx4ssxx4","NaN","<div style=""width:500px;"">
                                <p style=""font-size:50px; font-weight:bold;""
                                ></p>
                                <div style=""width:240px; margin: auto;"">
                                    <img src=""images/D66.png"" style= ""width:200px""alt=""img"">
                                </div>
                            </div>","102","","0","images/D66.png","","","","[""Fine"",""Coarse""]"
"","","","","","html-slider-response","118","4352001","0.0-114.0","5awx4ssxx4","NaN","<div style=""width:500px;"">
                                <p style=""font-size:50px; font-weight:bold;""
                                ></p>
                                <div style=""width:240px; margin: auto;"">
                                    <img src=""images/D25.png"" style= ""width:200px""alt=""img"">
                                </div>
                            </div>","91","","0","images/D25.png","","","","[""Fine"",""Coarse""]"
"","","","","","html-slider-response","119","4354357","0.0-115.0","5awx4ssxx4","NaN","<div style=""width:500px;"">
                                <p style=""font-size:50px; font-weight:bold;""
                                ></p>
                                <div style=""width:240px; margin: auto;"">
                                    <img src=""images/D11.png"" style= ""width:200px""alt=""img"">
                                </div>
                            </div>","-112","","0","images/D11.png","","","","[""Fine"",""Coarse""]"
"","","","","","html-slider-response","120","4356314","0.0-116.0","5awx4ssxx4","NaN","<div style=""width:500px;"">
                                <p style=""font-size:50px; font-weight:bold;""
                                ></p>
                                <div style=""width:240px; margin: auto;"">
                                    <img src=""images/D19.png"" style= ""width:200px""alt=""img"">
                                </div>
                            </div>","120","","0","images/D19.png","","","","[""Fine"",""Coarse""]"
"","","","","","html-slider-response","121","4357781","0.0-117.0","5awx4ssxx4","NaN","<div style=""width:500px;"">
                                <p style=""font-size:50px; font-weight:bold;""
                                ></p>
                                <div style=""width:240px; margin: auto;"">
                                    <img src=""images/D83.png"" style= ""width:200px""alt=""img"">
                                </div>
                            </div>","200","","0","images/D83.png","","","","[""Fine"",""Coarse""]"
"","","","","","html-slider-response","122","4359463","0.0-118.0","5awx4ssxx4","NaN","<div style=""width:500px;"">
                                <p style=""font-size:50px; font-weight:bold;""
                                ></p>
                                <div style=""width:240px; margin: auto;"">
                                    <img src=""images/D92.png"" style= ""width:200px""alt=""img"">
                                </div>
                            </div>","111","","0","images/D92.png","","","","[""Fine"",""Coarse""]"
"","","","","","html-slider-response","123","4360966","0.0-119.0","5awx4ssxx4","NaN","<div style=""width:500px;"">
                                <p style=""font-size:50px; font-weight:bold;""
                                ></p>
                                <div style=""width:240px; margin: auto;"">
                                    <img src=""images/D81.png"" style= ""width:200px""alt=""img"">
                                </div>
                            </div>","200","","0","images/D81.png","","","","[""Fine"",""Coarse""]"
"","","","","","html-slider-response","124","4362181","0.0-120.0","5awx4ssxx4","NaN","<div style=""width:500px;"">
                                <p style=""font-size:50px; font-weight:bold;""
                                ></p>
                                <div style=""width:240px; margin: auto;"">
                                    <img src=""images/D24.png"" style= ""width:200px""alt=""img"">
                                </div>
                            </div>","200","","0","images/D24.png","","","","[""Fine"",""Coarse""]"
"","","","","","html-slider-response","125","4363643","0.0-121.0","5awx4ssxx4","NaN","<div style=""width:500px;"">
                                <p style=""font-size:50px; font-weight:bold;""
                                ></p>
                                <div style=""width:240px; margin: auto;"">
                                    <img src=""images/D20.png"" style= ""width:200px""alt=""img"">
                                </div>
                            </div>","200","","0","images/D20.png","","","","[""Fine"",""Coarse""]"
"","","","","","html-slider-response","126","4365148","0.0-122.0","5awx4ssxx4","NaN","<div style=""width:500px;"">
                                <p style=""font-size:50px; font-weight:bold;""
                                ></p>
                                <div style=""width:240px; margin: auto;"">
                                    <img src=""images/D55.png"" style= ""width:200px""alt=""img"">
                                </div>
                            </div>","200","","0","images/D55.png","","","","[""Fine"",""Coarse""]"
"","","","","","html-slider-response","127","4366502","0.0-123.0","5awx4ssxx4","NaN","<div style=""width:500px;"">
                                <p style=""font-size:50px; font-weight:bold;""
                                ></p>
                                <div style=""width:240px; margin: auto;"">
                                    <img src=""images/D57.png"" style= ""width:200px""alt=""img"">
                                </div>
                            </div>","200","","0","images/D57.png","","","","[""Fine"",""Coarse""]"
"","","","","","html-slider-response","128","4370297","0.0-124.0","5awx4ssxx4","NaN","<div style=""width:500px;"">
                                <p style=""font-size:50px; font-weight:bold;""
                                ></p>
                                <div style=""width:240px; margin: auto;"">
                                    <img src=""images/D48.png"" style= ""width:200px""alt=""img"">
                                </div>
                            </div>","-98","","0","images/D48.png","","","","[""Fine"",""Coarse""]"
"","","","","","html-slider-response","129","4372322","0.0-125.0","5awx4ssxx4","NaN","<div style=""width:500px;"">
                                <p style=""font-size:50px; font-weight:bold;""
                                ></p>
                                <div style=""width:240px; margin: auto;"">
                                    <img src=""images/D6.png"" style= ""width:200px""alt=""img"">
                                </div>
                            </div>","-82","","0","images/D6.png","","","","[""Fine"",""Coarse""]"
"","","","","","html-slider-response","130","4377154","0.0-126.0","5awx4ssxx4","NaN","<div style=""width:500px;"">
                                <p style=""font-size:50px; font-weight:bold;""
                                ></p>
                                <div style=""width:240px; margin: auto;"">
                                    <img src=""images/D18.png"" style= ""width:200px""alt=""img"">
                                </div>
                            </div>","122","","0","images/D18.png","","","","[""Fine"",""Coarse""]"
"","","","","","html-slider-response","131","4379755","0.0-127.0","5awx4ssxx4","NaN","<div style=""width:500px;"">
                                <p style=""font-size:50px; font-weight:bold;""
                                ></p>
                                <div style=""width:240px; margin: auto;"">
                                    <img src=""images/D87.png"" style= ""width:200px""alt=""img"">
                                </div>
                            </div>","137","","0","images/D87.png","","","","[""Fine"",""Coarse""]"
"","","","","","html-slider-response","132","4381752","0.0-128.0","5awx4ssxx4","NaN","<div style=""width:500px;"">
                                <p style=""font-size:50px; font-weight:bold;""
                                ></p>
                                <div style=""width:240px; margin: auto;"">
                                    <img src=""images/D85.png"" style= ""width:200px""alt=""img"">
                                </div>
                            </div>","142","","0","images/D85.png","","","","[""Fine"",""Coarse""]"
"","","","","","html-slider-response","133","4383359","0.0-129.0","5awx4ssxx4","NaN","<div style=""width:500px;"">
                                <p style=""font-size:50px; font-weight:bold;""
                                ></p>
                                <div style=""width:240px; margin: auto;"">
                                    <img src=""images/D104.png"" style= ""width:200px""alt=""img"">
                                </div>
                            </div>","123","","0","images/D104.png","","","","[""Fine"",""Coarse""]"
"","","","","","html-slider-response","134","4384848","0.0-130.0","5awx4ssxx4","NaN","<div style=""width:500px;"">
                                <p style=""font-size:50px; font-weight:bold;""
                                ></p>
                                <div style=""width:240px; margin: auto;"">
                                    <img src=""images/D37.png"" style= ""width:200px""alt=""img"">
                                </div>
                            </div>","114","","0","images/D37.png","","","","[""Fine"",""Coarse""]"
"","","","","","html-slider-response","135","4386152","0.0-131.0","5awx4ssxx4","NaN","<div style=""width:500px;"">
                                <p style=""font-size:50px; font-weight:bold;""
                                ></p>
                                <div style=""width:240px; margin: auto;"">
                                    <img src=""images/D26.png"" style= ""width:200px""alt=""img"">
                                </div>
                            </div>","145","","0","images/D26.png","","","","[""Fine"",""Coarse""]"
"","","","","","html-slider-response","136","4387782","0.0-132.0","5awx4ssxx4","NaN","<div style=""width:500px;"">
                                <p style=""font-size:50px; font-weight:bold;""
                                ></p>
                                <div style=""width:240px; margin: auto;"">
                                    <img src=""images/D4.png"" style= ""width:200px""alt=""img"">
                                </div>
                            </div>","200","","0","images/D4.png","","","","[""Fine"",""Coarse""]"
"","","","","","html-slider-response","137","4391493","0.0-133.0","5awx4ssxx4","NaN","<div style=""width:500px;"">
                                <p style=""font-size:50px; font-weight:bold;""
                                ></p>
                                <div style=""width:240px; margin: auto;"">
                                    <img src=""images/D36.png"" style= ""width:200px""alt=""img"">
                                </div>
                            </div>","-94","","0","images/D36.png","","","","[""Fine"",""Coarse""]"
"","","","","","html-slider-response","138","4393725","0.0-134.0","5awx4ssxx4","NaN","<div style=""width:500px;"">
                                <p style=""font-size:50px; font-weight:bold;""
                                ></p>
                                <div style=""width:240px; margin: auto;"">
                                    <img src=""images/D94.png"" style= ""width:200px""alt=""img"">
                                </div>
                            </div>","114","","0","images/D94.png","","","","[""Fine"",""Coarse""]"
"","","","","","html-slider-response","139","4396315","0.0-135.0","5awx4ssxx4","NaN","<div style=""width:500px;"">
                                <p style=""font-size:50px; font-weight:bold;""
                                ></p>
                                <div style=""width:240px; margin: auto;"">
                                    <img src=""images/D22.png"" style= ""width:200px""alt=""img"">
                                </div>
                            </div>","-105","","0","images/D22.png","","","","[""Fine"",""Coarse""]"
"","","","","","html-slider-response","140","4398232","0.0-136.0","5awx4ssxx4","NaN","<div style=""width:500px;"">
                                <p style=""font-size:50px; font-weight:bold;""
                                ></p>
                                <div style=""width:240px; margin: auto;"">
                                    <img src=""images/D82.png"" style= ""width:200px""alt=""img"">
                                </div>
                            </div>","-200","","0","images/D82.png","","","","[""Fine"",""Coarse""]"
"","","","","","html-slider-response","141","4407659","0.0-137.0","5awx4ssxx4","NaN","<div style=""width:500px;"">
                                <p style=""font-size:50px; font-weight:bold;""
                                ></p>
                                <div style=""width:240px; margin: auto;"">
                                    <img src=""images/D21.png"" style= ""width:200px""alt=""img"">
                                </div>
                            </div>","113","","0","images/D21.png","","","","[""Fine"",""Coarse""]"
"","","","","","html-slider-response","142","4413764","0.0-138.0","5awx4ssxx4","NaN","<div style=""width:500px;"">
                                <p style=""font-size:50px; font-weight:bold;""
                                ></p>
                                <div style=""width:240px; margin: auto;"">
                                    <img src=""images/D68.png"" style= ""width:200px""alt=""img"">
                                </div>
                            </div>","112","","0","images/D68.png","","","","[""Fine"",""Coarse""]"
"","","","","","html-slider-response","143","4415544","0.0-139.0","5awx4ssxx4","NaN","<div style=""width:500px;"">
                                <p style=""font-size:50px; font-weight:bold;""
                                ></p>
                                <div style=""width:240px; margin: auto;"">
                                    <img src=""images/D77.png"" style= ""width:200px""alt=""img"">
                                </div>
                            </div>","200","","0","images/D77.png","","","","[""Fine"",""Coarse""]"
"","","","","","html-button-response","144","4420572","0.0-140.0","5awx4ssxx4","4521","You have completed the second block of trials out of six. Please click 'Continue' when you are ready proceed.","0","","","","","","",""
"","","","","","html-button-response","145","4421990","0.0-141.0","5awx4ssxx4","1417","In the following trials, you will be asked to rate textures on the scale <b>Non-Random</b> versus <b>Random</b>. Please click 'Continue' when you are ready proceed.","0","","","","","","",""
"","","","","","html-slider-response","146","4423566","0.0-142.0","5awx4ssxx4","NaN","<div style=""width:500px;"">
                                <p style=""font-size:50px; font-weight:bold;""
                                ></p>
                                <div style=""width:240px; margin: auto;"">
                                    <img src=""images/D34.png"" style= ""width:200px""alt=""img"">
                                </div>
                            </div>","200","","0","images/D34.png","","","","[""Non-random"",""Random""]"
"","","","","","html-slider-response","147","4425571","0.0-143.0","5awx4ssxx4","NaN","<div style=""width:500px;"">
                                <p style=""font-size:50px; font-weight:bold;""
                                ></p>
                                <div style=""width:240px; margin: auto;"">
                                    <img src=""images/D49.png"" style= ""width:200px""alt=""img"">
                                </div>
                            </div>","-200","","0","images/D49.png","","","","[""Non-random"",""Random""]"
"","","","","","html-slider-response","148","4427518","0.0-144.0","5awx4ssxx4","NaN","<div style=""width:500px;"">
                                <p style=""font-size:50px; font-weight:bold;""
                                ></p>
                                <div style=""width:240px; margin: auto;"">
                                    <img src=""images/D103.png"" style= ""width:200px""alt=""img"">
                                </div>
                            </div>","200","","0","images/D103.png","","","","[""Non-random"",""Random""]"
"","","","","","html-slider-response","149","4429018","0.0-145.0","5awx4ssxx4","NaN","<div style=""width:500px;"">
                                <p style=""font-size:50px; font-weight:bold;""
                                ></p>
                                <div style=""width:240px; margin: auto;"">
                                    <img src=""images/D3.png"" style= ""width:200px""alt=""img"">
                                </div>
                            </div>","200","","0","images/D3.png","","","","[""Non-random"",""Random""]"
"","","","","","html-slider-response","150","4431106","0.0-146.0","5awx4ssxx4","NaN","<div style=""width:500px;"">
                                <p style=""font-size:50px; font-weight:bold;""
                                ></p>
                                <div style=""width:240px; margin: auto;"">
                                    <img src=""images/D46.png"" style= ""width:200px""alt=""img"">
                                </div>
                            </div>","-200","","0","images/D46.png","","","","[""Non-random"",""Random""]"
"","","","","","html-slider-response","151","4433052","0.0-147.0","5awx4ssxx4","NaN","<div style=""width:500px;"">
                                <p style=""font-size:50px; font-weight:bold;""
                                ></p>
                                <div style=""width:240px; margin: auto;"">
                                    <img src=""images/D101.png"" style= ""width:200px""alt=""img"">
                                </div>
                            </div>","-200","","0","images/D101.png","","","","[""Non-random"",""Random""]"
"","","","","","html-slider-response","152","4436965","0.0-148.0","5awx4ssxx4","NaN","<div style=""width:500px;"">
                                <p style=""font-size:50px; font-weight:bold;""
                                ></p>
                                <div style=""width:240px; margin: auto;"">
                                    <img src=""images/D9.png"" style= ""width:200px""alt=""img"">
                                </div>
                            </div>","200","","0","images/D9.png","","","","[""Non-random"",""Random""]"
"","","","","","html-slider-response","153","4438922","0.0-149.0","5awx4ssxx4","NaN","<div style=""width:500px;"">
                                <p style=""font-size:50px; font-weight:bold;""
                                ></p>
                                <div style=""width:240px; margin: auto;"">
                                    <img src=""images/D53.png"" style= ""width:200px""alt=""img"">
                                </div>
                            </div>","200","","0","images/D53.png","","","","[""Non-random"",""Random""]"
"","","","","","html-slider-response","154","4441230","0.0-150.0","5awx4ssxx4","NaN","<div style=""width:500px;"">
                                <p style=""font-size:50px; font-weight:bold;""
                                ></p>
                                <div style=""width:240px; margin: auto;"">
                                    <img src=""images/D32.png"" style= ""width:200px""alt=""img"">
                                </div>
                            </div>","-200","","0","images/D32.png","","","","[""Non-random"",""Random""]"
"","","","","","html-slider-response","155","4443455","0.0-151.0","5awx4ssxx4","NaN","<div style=""width:500px;"">
                                <p style=""font-size:50px; font-weight:bold;""
                                ></p>
                                <div style=""width:240px; margin: auto;"">
                                    <img src=""images/D35.png"" style= ""width:200px""alt=""img"">
                                </div>
                            </div>","-200","","0","images/D35.png","","","","[""Non-random"",""Random""]"
"","","","","","html-slider-response","156","4445873","0.0-152.0","5awx4ssxx4","NaN","<div style=""width:500px;"">
                                <p style=""font-size:50px; font-weight:bold;""
                                ></p>
                                <div style=""width:240px; margin: auto;"">
                                    <img src=""images/D65.png"" style= ""width:200px""alt=""img"">
                                </div>
                            </div>","-200","","0","images/D65.png","","","","[""Non-random"",""Random""]"
"","","","","","html-slider-response","157","4448246","0.0-153.0","5awx4ssxx4","NaN","<div style=""width:500px;"">
                                <p style=""font-size:50px; font-weight:bold;""
                                ></p>
                                <div style=""width:240px; margin: auto;"">
                                    <img src=""images/D102.png"" style= ""width:200px""alt=""img"">
                                </div>
                            </div>","-200","","0","images/D102.png","","","","[""Non-random"",""Random""]"
"","","","","","html-slider-response","158","4450354","0.0-154.0","5awx4ssxx4","NaN","<div style=""width:500px;"">
                                <p style=""font-size:50px; font-weight:bold;""
                                ></p>
                                <div style=""width:240px; margin: auto;"">
                                    <img src=""images/D84.png"" style= ""width:200px""alt=""img"">
                                </div>
                            </div>","-200","","0","images/D84.png","","","","[""Non-random"",""Random""]"
"","","","","","html-slider-response","159","4452596","0.0-155.0","5awx4ssxx4","NaN","<div style=""width:500px;"">
                                <p style=""font-size:50px; font-weight:bold;""
                                ></p>
                                <div style=""width:240px; margin: auto;"">
                                    <img src=""images/D105.png"" style= ""width:200px""alt=""img"">
                                </div>
                            </div>","-200","","0","images/D105.png","","","","[""Non-random"",""Random""]"
"","","","","","html-slider-response","160","4456176","0.0-156.0","5awx4ssxx4","NaN","<div style=""width:500px;"">
                                <p style=""font-size:50px; font-weight:bold;""
                                ></p>
                                <div style=""width:240px; margin: auto;"">
                                    <img src=""images/D29.png"" style= ""width:200px""alt=""img"">
                                </div>
                            </div>","200","","0","images/D29.png","","","","[""Non-random"",""Random""]"
"","","","","","html-slider-response","161","4458141","0.0-157.0","5awx4ssxx4","NaN","<div style=""width:500px;"">
                                <p style=""font-size:50px; font-weight:bold;""
                                ></p>
                                <div style=""width:240px; margin: auto;"">
                                    <img src=""images/D76.png"" style= ""width:200px""alt=""img"">
                                </div>
                            </div>","-200","","0","images/D76.png","","","","[""Non-random"",""Random""]"
"","","","","","html-slider-response","162","4490599","0.0-158.0","5awx4ssxx4","NaN","<div style=""width:500px;"">
                                <p style=""font-size:50px; font-weight:bold;""
                                ></p>
                                <div style=""width:240px; margin: auto;"">
                                    <img src=""images/D16.png"" style= ""width:200px""alt=""img"">
                                </div>
                            </div>","200","","0","images/D16.png","","","","[""Non-random"",""Random""]"
"","","","","","html-slider-response","163","4492571","0.0-159.0","5awx4ssxx4","NaN","<div style=""width:500px;"">
                                <p style=""font-size:50px; font-weight:bold;""
                                ></p>
                                <div style=""width:240px; margin: auto;"">
                                    <img src=""images/D17.png"" style= ""width:200px""alt=""img"">
                                </div>
                            </div>","-200","","0","images/D17.png","","","","[""Non-random"",""Random""]"
"","","","","","html-slider-response","164","4494819","0.0-160.0","5awx4ssxx4","NaN","<div style=""width:500px;"">
                                <p style=""font-size:50px; font-weight:bold;""
                                ></p>
                                <div style=""width:240px; margin: auto;"">
                                    <img src=""images/D52.png"" style= ""width:200px""alt=""img"">
                                </div>
                            </div>","-200","","0","images/D52.png","","","","[""Non-random"",""Random""]"
"","","","","","html-slider-response","165","4497314","0.0-161.0","5awx4ssxx4","NaN","<div style=""width:500px;"">
                                <p style=""font-size:50px; font-weight:bold;""
                                ></p>
                                <div style=""width:240px; margin: auto;"">
                                    <img src=""images/D64.png"" style= ""width:200px""alt=""img"">
                                </div>
                            </div>","-200","","0","images/D64.png","","","","[""Non-random"",""Random""]"
"","","","","","html-slider-response","166","4499269","0.0-162.0","5awx4ssxx4","NaN","<div style=""width:500px;"">
                                <p style=""font-size:50px; font-weight:bold;""
                                ></p>
                                <div style=""width:240px; margin: auto;"">
                                    <img src=""images/D95.png"" style= ""width:200px""alt=""img"">
                                </div>
                            </div>","-200","","0","images/D95.png","","","","[""Non-random"",""Random""]"
"","","","","","html-slider-response","167","4505347","0.0-163.0","5awx4ssxx4","NaN","<div style=""width:500px;"">
                                <p style=""font-size:50px; font-weight:bold;""
                                ></p>
                                <div style=""width:240px; margin: auto;"">
                                    <img src=""images/D78.png"" style= ""width:200px""alt=""img"">
                                </div>
                            </div>","200","","0","images/D78.png","","","","[""Non-random"",""Random""]"
"","","","","","html-slider-response","168","4507947","0.0-164.0","5awx4ssxx4","NaN","<div style=""width:500px;"">
                                <p style=""font-size:50px; font-weight:bold;""
                                ></p>
                                <div style=""width:240px; margin: auto;"">
                                    <img src=""images/D106.png"" style= ""width:200px""alt=""img"">
                                </div>
                            </div>","200","","0","images/D106.png","","","","[""Non-random"",""Random""]"
"","","","","","html-slider-response","169","4513625","0.0-165.0","5awx4ssxx4","NaN","<div style=""width:500px;"">
                                <p style=""font-size:50px; font-weight:bold;""
                                ></p>
                                <div style=""width:240px; margin: auto;"">
                                    <img src=""images/D96.png"" style= ""width:200px""alt=""img"">
                                </div>
                            </div>","200","","0","images/D96.png","","","","[""Non-random"",""Random""]"
"","","","","","html-slider-response","170","4518110","0.0-166.0","5awx4ssxx4","NaN","<div style=""width:500px;"">
                                <p style=""font-size:50px; font-weight:bold;""
                                ></p>
                                <div style=""width:240px; margin: auto;"">
                                    <img src=""images/D75.png"" style= ""width:200px""alt=""img"">
                                </div>
                            </div>","200","","0","images/D75.png","","","","[""Non-random"",""Random""]"
"","","","","","html-slider-response","171","4520799","0.0-167.0","5awx4ssxx4","NaN","<div style=""width:500px;"">
                                <p style=""font-size:50px; font-weight:bold;""
                                ></p>
                                <div style=""width:240px; margin: auto;"">
                                    <img src=""images/D56.png"" style= ""width:200px""alt=""img"">
                                </div>
                            </div>","-200","","0","images/D56.png","","","","[""Non-random"",""Random""]"
"","","","","","html-slider-response","172","4524270","0.0-168.0","5awx4ssxx4","NaN","<div style=""width:500px;"">
                                <p style=""font-size:50px; font-weight:bold;""
                                ></p>
                                <div style=""width:240px; margin: auto;"">
                                    <img src=""images/D47.png"" style= ""width:200px""alt=""img"">
                                </div>
                            </div>","-200","","0","images/D47.png","","","","[""Non-random"",""Random""]"
"","","","","","html-slider-response","173","4526496","0.0-169.0","5awx4ssxx4","NaN","<div style=""width:500px;"">
                                <p style=""font-size:50px; font-weight:bold;""
                                ></p>
                                <div style=""width:240px; margin: auto;"">
                                    <img src=""images/D8.png"" style= ""width:200px""alt=""img"">
                                </div>
                            </div>","200","","0","images/D8.png","","","","[""Non-random"",""Random""]"
"","","","","","html-slider-response","174","4530758","0.0-170.0","5awx4ssxx4","NaN","<div style=""width:500px;"">
                                <p style=""font-size:50px; font-weight:bold;""
                                ></p>
                                <div style=""width:240px; margin: auto;"">
                                    <img src=""images/D80.png"" style= ""width:200px""alt=""img"">
                                </div>
                            </div>","-200","","0","images/D80.png","","","","[""Non-random"",""Random""]"
"","","","","","html-slider-response","175","4532975","0.0-171.0","5awx4ssxx4","NaN","<div style=""width:500px;"">
                                <p style=""font-size:50px; font-weight:bold;""
                                ></p>
                                <div style=""width:240px; margin: auto;"">
                                    <img src=""images/D111.png"" style= ""width:200px""alt=""img"">
                                </div>
                            </div>","200","","0","images/D111.png","","","","[""Non-random"",""Random""]"
"","","","","","html-slider-response","176","4534843","0.0-172.0","5awx4ssxx4","NaN","<div style=""width:500px;"">
                                <p style=""font-size:50px; font-weight:bold;""
                                ></p>
                                <div style=""width:240px; margin: auto;"">
                                    <img src=""images/D14.png"" style= ""width:200px""alt=""img"">
                                </div>
                            </div>","200","","0","images/D14.png","","","","[""Non-random"",""Random""]"
"","","","","","html-slider-response","177","4536863","0.0-173.0","5awx4ssxx4","NaN","<div style=""width:500px;"">
                                <p style=""font-size:50px; font-weight:bold;""
                                ></p>
                                <div style=""width:240px; margin: auto;"">
                                    <img src=""images/D79.png"" style= ""width:200px""alt=""img"">
                                </div>
                            </div>","200","","0","images/D79.png","","","","[""Non-random"",""Random""]"
"","","","","","html-slider-response","178","4538509","0.0-174.0","5awx4ssxx4","NaN","<div style=""width:500px;"">
                                <p style=""font-size:50px; font-weight:bold;""
                                ></p>
                                <div style=""width:240px; margin: auto;"">
                                    <img src=""images/D51.png"" style= ""width:200px""alt=""img"">
                                </div>
                            </div>","-200","","0","images/D51.png","","","","[""Non-random"",""Random""]"
"","","","","","html-slider-response","179","4540342","0.0-175.0","5awx4ssxx4","NaN","<div style=""width:500px;"">
                                <p style=""font-size:50px; font-weight:bold;""
                                ></p>
                                <div style=""width:240px; margin: auto;"">
                                    <img src=""images/D74.png"" style= ""width:200px""alt=""img"">
                                </div>
                            </div>","-200","","0","images/D74.png","","","","[""Non-random"",""Random""]"
"","","","","","html-slider-response","180","4542117","0.0-176.0","5awx4ssxx4","NaN","<div style=""width:500px;"">
                                <p style=""font-size:50px; font-weight:bold;""
                                ></p>
                                <div style=""width:240px; margin: auto;"">
                                    <img src=""images/D1.png"" style= ""width:200px""alt=""img"">
                                </div>
                            </div>","200","","0","images/D1.png","","","","[""Non-random"",""Random""]"
"","","","","","html-slider-response","181","4544015","0.0-177.0","5awx4ssxx4","NaN","<div style=""width:500px;"">
                                <p style=""font-size:50px; font-weight:bold;""
                                ></p>
                                <div style=""width:240px; margin: auto;"">
                                    <img src=""images/D66.png"" style= ""width:200px""alt=""img"">
                                </div>
                            </div>","200","","0","images/D66.png","","","","[""Non-random"",""Random""]"
"","","","","","html-slider-response","182","4546024","0.0-178.0","5awx4ssxx4","NaN","<div style=""width:500px;"">
                                <p style=""font-size:50px; font-weight:bold;""
                                ></p>
                                <div style=""width:240px; margin: auto;"">
                                    <img src=""images/D25.png"" style= ""width:200px""alt=""img"">
                                </div>
                            </div>","-200","","0","images/D25.png","","","","[""Non-random"",""Random""]"
"","","","","","html-slider-response","183","4547645","0.0-179.0","5awx4ssxx4","NaN","<div style=""width:500px;"">
                                <p style=""font-size:50px; font-weight:bold;""
                                ></p>
                                <div style=""width:240px; margin: auto;"">
                                    <img src=""images/D11.png"" style= ""width:200px""alt=""img"">
                                </div>
                            </div>","-200","","0","images/D11.png","","","","[""Non-random"",""Random""]"
"","","","","","html-slider-response","184","4549533","0.0-180.0","5awx4ssxx4","NaN","<div style=""width:500px;"">
                                <p style=""font-size:50px; font-weight:bold;""
                                ></p>
                                <div style=""width:240px; margin: auto;"">
                                    <img src=""images/D19.png"" style= ""width:200px""alt=""img"">
                                </div>
                            </div>","200","","0","images/D19.png","","","","[""Non-random"",""Random""]"
"","","","","","html-slider-response","185","4551012","0.0-181.0","5awx4ssxx4","NaN","<div style=""width:500px;"">
                                <p style=""font-size:50px; font-weight:bold;""
                                ></p>
                                <div style=""width:240px; margin: auto;"">
                                    <img src=""images/D83.png"" style= ""width:200px""alt=""img"">
                                </div>
                            </div>","-200","","0","images/D83.png","","","","[""Non-random"",""Random""]"
"","","","","","html-slider-response","186","4552721","0.0-182.0","5awx4ssxx4","NaN","<div style=""width:500px;"">
                                <p style=""font-size:50px; font-weight:bold;""
                                ></p>
                                <div style=""width:240px; margin: auto;"">
