"success","timeout","failed_images","failed_audio","failed_video","trial_type","trial_index","time_elapsed","internal_node_id","subject_id","rt","stimulus","response","question_order","slider_start","image_path","practiceTrial","practiceTrialNum","correct","slider_labels"
"true","false","[]","[]","[]","preload","0","292","0.0-0.0","5xwmolkly4","","","","","","","","","",""
"","","","","","html-button-response","1","2467","0.0-1.0","5xwmolkly4","2174","<div style='text-align:center; font-size:20px; line-height:25px; width: 1200px;'>
                Welcome to our experiment! <br>
                <br>At the bottom of this screen, you will see a button that says 'Begin Experiment.
                <br>Please only click that button when you are ready to complete the 25 minute experiment in one sitting. <br>
                <br> Once you click that button, it will not be possible to restart the experiment. <br><br>","0","","","","","","",""
"true","","","","","fullscreen","2","4696","0.0-2.0","5xwmolkly4","1227","","","","","","","","",""
"","","","","","survey-multi-select","3","21713","0.0-3.0","5xwmolkly4","17012","","{""Consent"":[""<strong>I consent</strong>""]}","[0]","","","","","",""
"","","","","","html-button-response","4","23044","0.0-4.0","5xwmolkly4","1330","Welcome! <p> This experiment involves two parts: demographic information, followed by the experimental task.<p> It will take about 25 minutes to complete both parts.","0","","","","","","",""
"","","","","","survey-text","5","34012","0.0-5.0","5xwmolkly4","10966","","{""Age"":""19"",""Gender"":""female"",""Race/ethnicity"":""east asian""}","","","","","","",""
"","","","","","html-slider-response","6","71028","0.0-6.0","5xwmolkly4","37016","
                <div style='text-align:center; height: auto; margin-left=-100px; margin-bottom: -20px; font-size:20px; line-height:5px; width: 1200px;'>
                    <br>During this experiment, you will see a series of textures, one at a time, like the ones below: 
                </div>
                    <br>
                    <br>
                    <img src=""anchoring_visual_textures.png"" alt=""img"" style=""max-width:1200px; margin-left: -10px;"">
                </div>
                <div style=""clear: both;""></div>
                </div>
                    <div style='text-align:center; margin-left=-100px; font-size:20px; line-height:20px; width: 1200px; margin-top: -50px;'>
                    
                    <br> For each texture, you will be asked to rate where you think it falls on each of the response scales with the following endpoints:
                    </div>
                            <div style=""text-align: center; width: 1400px; "">
                                <p style=""font-size:20px; line-height:5px; ""><b>Stripey</b> versus <b>Blobby</b></p>
                                <p style=""font-size:20px; line-height:5px; ""><b>Rectangular</b> versus <b>Rounded</b></p>
                                <p style=""font-size:20px;line-height:5px;""><b>Fine</b> versus <b>Coarse</b></p>
                                <p style=""font-size:20px;line-height:5px; ""><b>Smooth</b> versus <b>Rough</b></p>
                                <p style=""font-size:20px;line-height:5px; ""><b>Non-Random</b> versus <b>Random</b></p>
                                <p style=""font-size:20px;line-height:5px;""><b>Soft</b> versus <b>Hard</b></p>
                            </div>
                            <div style='text-align:center; font-size:20px; line-height:20px; width: 1400px;'>
                    
                    Each trial will include one texture and one response scale. You will be asked to make your rating by sliding the cursor along a slider response scale like the one below.
                    <br><br> Before beginning, please look at the textures and scales. For each scale, think about the texture you associate most with the left endpoint. When you see that texture for that response scale, please click near the left of the scale.
                    <br><br> Now, please think about the texture you associate most with the right endpoint of each scale. When you see that texture for that response scale, please click near the right of the scale. 
                    <br><br> If you think a texture is not strongly associated with either endpoint of the scale, please click near the midpoint of the scale. Please use the full range of the scale. 
                    <br><br> You will be asked to rate each texture for a given scale before moving on to the next scale.
                    <br><br> Please press the 'Continue' button for instructions on how to use the slider.                     <br><br>
                ","105","","0","visual_textures_anchoring.png","true","","",""
"","","","","","html-button-response","7","73127","0.0-7.0","5xwmolkly4","2099","<div style=""width:1200px; margin-top:-150px;""><p style=""text-align:center; font-size:24px;"">To move the slider, click and drag your cursor to the location of the scale where you would like to make your rating and then let go. <br><br> When you let go of the slider, your response will be recorded and the next trial will begin. <br><br><br>
                We are interested in your initial impressions of each texture and scale, so please go with your first intuition. <br><br>
                Before you begin the experiment, there will be four training trials for you to practice using the scale. <br><br><br><br></div>
                <div style=""width:1200px;""><p style=""text-align:center; font-size:20px;"">When you are ready to start the training trials, please click ""Continue"".</p></div>","0","","","","","","",""
"","","","","","html-slider-response","8","75825","0.0-8.0-0.0","5xwmolkly4","NaN","<div style=""width:500px;"">
                                <p style=""font-size:25px;"">Please move the slider all the way to the <br> right endpoint of the scale</p>

                                </div>
                            </div>","200","","0","","true","0","true",""
"","","","","","html-button-response","9","77265","0.0-8.0-1.0","5xwmolkly4","936","<p align='center'><b>Good job!</b> Click on 'Continue' to proceed.</p>","0","","","","","","",""
"","","","","","html-slider-response","10","78890","0.0-9.0-0.0","5xwmolkly4","NaN","<div style=""width:500px;"">
                                <p style=""font-size:25px;"">Please move the slider all the way to the <br> left endpoint of the scale</p>

                                </div>
                            </div>","-200","","0","","true","1","true",""
"","","","","","html-button-response","11","80245","0.0-9.0-1.0","5xwmolkly4","853","<p align='center'><b>Good job!</b> Click on 'Continue' to proceed.</p>","0","","","","","","",""
"","","","","","html-slider-response","12","85175","0.0-10.0-0.0","5xwmolkly4","NaN","<div style=""width:500px;"">
                                <p style=""font-size:25px;"">Please move the slider halfway between the center and right endpoint of the scale</p>

                                </div>
                            </div>","44","","0","","true","2","false",""
"","","","","","html-button-response","13","87378","0.0-10.0-1.0","5xwmolkly4","1701","<p align='center'><b>Not quite!</b> The slider was not placed near the instructed locattion. Click on 'Continue' to try again. </p>","0","","","","","","",""
"","","","","","html-slider-response","14","90943","0.0-10.1-0.1","5xwmolkly4","NaN","<div style=""width:500px;"">
                                <p style=""font-size:25px;"">Please move the slider halfway between the center and right endpoint of the scale</p>

                                </div>
                            </div>","103","","0","","true","2","true",""
"","","","","","html-button-response","15","92214","0.0-10.1-1.1","5xwmolkly4","769","<p align='center'><b>Good job!</b> Click on 'Continue' to proceed.</p>","0","","","","","","",""
"","","","","","html-slider-response","16","95072","0.0-11.0-0.0","5xwmolkly4","NaN","<div style=""width:500px;"">
                                <p style=""font-size:25px;"">Please move the slider halfway between the center and left endpoint of the scale</p>

                                </div>
                            </div>","-107","","0","","true","3","true",""
"","","","","","html-button-response","17","97115","0.0-11.0-1.0","5xwmolkly4","1542","<p align='center'><b>Good job!</b> Click on 'Continue' to proceed.</p>","0","","","","","","",""
"","","","","","html-button-response","18","101561","0.0-12.0","5xwmolkly4","4445","<div style=""width:800px; margin-top:-300px;""><p style=""text-align:center; font-size:22px; line-height:25px;""""> Great job! You've completed the practice trials.</div>
                     <div style=""width:800px; margin-top:-20px;""><p style=""text-align:center""><br><br> In the following trials, you will be asked to rate textures on each scale one-by-one. <br> You will be given opportunities to take breaks when you have completed each block of trials. There are six total blocks of trials. <br><br> Please click continue to begin the main task.<br><br><br> </div>","0","","","","","","",""
"","","","","","html-button-response","19","102630","0.0-13.0","5xwmolkly4","1069","In the following trials, you will be asked to rate textures on the scale <b>Fine</b> versus <b>Coarse</b>. Please click 'Continue' when you are ready proceed.","0","","","","","","",""
"","","","","","html-slider-response","20","106257","0.0-14.0","5xwmolkly4","NaN","<div style=""width:500px;"">
                                <p style=""font-size:50px; font-weight:bold;""
                                ></p>
                                <div style=""width:240px; margin: auto;"">
                                    <img src=""images/D83.png"" style= ""width:200px""alt=""img"">
                                </div>
                            </div>","102","","0","images/D83.png","","","","[""Fine"",""Coarse""]"
"","","","","","html-slider-response","21","111860","0.0-15.0","5xwmolkly4","NaN","<div style=""width:500px;"">
                                <p style=""font-size:50px; font-weight:bold;""
                                ></p>
                                <div style=""width:240px; margin: auto;"">
                                    <img src=""images/D3.png"" style= ""width:200px""alt=""img"">
                                </div>
                            </div>","50","","0","images/D3.png","","","","[""Fine"",""Coarse""]"
"","","","","","html-slider-response","22","115376","0.0-16.0","5xwmolkly4","NaN","<div style=""width:500px;"">
                                <p style=""font-size:50px; font-weight:bold;""
                                ></p>
                                <div style=""width:240px; margin: auto;"">
                                    <img src=""images/D48.png"" style= ""width:200px""alt=""img"">
                                </div>
                            </div>","26","","0","images/D48.png","","","","[""Fine"",""Coarse""]"
"","","","","","html-slider-response","23","118670","0.0-17.0","5xwmolkly4","NaN","<div style=""width:500px;"">
                                <p style=""font-size:50px; font-weight:bold;""
                                ></p>
                                <div style=""width:240px; margin: auto;"">
                                    <img src=""images/D35.png"" style= ""width:200px""alt=""img"">
                                </div>
                            </div>","173","","0","images/D35.png","","","","[""Fine"",""Coarse""]"
"","","","","","html-slider-response","24","141424","0.0-18.0","5xwmolkly4","NaN","<div style=""width:500px;"">
                                <p style=""font-size:50px; font-weight:bold;""
                                ></p>
                                <div style=""width:240px; margin: auto;"">
                                    <img src=""images/D52.png"" style= ""width:200px""alt=""img"">
                                </div>
                            </div>","131","","0","images/D52.png","","","","[""Fine"",""Coarse""]"
"","","","","","html-slider-response","25","146256","0.0-19.0","5xwmolkly4","NaN","<div style=""width:500px;"">
                                <p style=""font-size:50px; font-weight:bold;""
                                ></p>
                                <div style=""width:240px; margin: auto;"">
                                    <img src=""images/D94.png"" style= ""width:200px""alt=""img"">
                                </div>
                            </div>","18","","0","images/D94.png","","","","[""Fine"",""Coarse""]"
"","","","","","html-slider-response","26","148238","0.0-20.0","5xwmolkly4","NaN","<div style=""width:500px;"">
                                <p style=""font-size:50px; font-weight:bold;""
                                ></p>
                                <div style=""width:240px; margin: auto;"">
                                    <img src=""images/D92.png"" style= ""width:200px""alt=""img"">
                                </div>
                            </div>","48","","0","images/D92.png","","","","[""Fine"",""Coarse""]"
"","","","","","html-slider-response","27","155992","0.0-21.0","5xwmolkly4","NaN","<div style=""width:500px;"">
                                <p style=""font-size:50px; font-weight:bold;""
                                ></p>
                                <div style=""width:240px; margin: auto;"">
                                    <img src=""images/D76.png"" style= ""width:200px""alt=""img"">
                                </div>
                            </div>","140","","0","images/D76.png","","","","[""Fine"",""Coarse""]"
"","","","","","html-slider-response","28","158226","0.0-22.0","5xwmolkly4","NaN","<div style=""width:500px;"">
                                <p style=""font-size:50px; font-weight:bold;""
                                ></p>
                                <div style=""width:240px; margin: auto;"">
                                    <img src=""images/D66.png"" style= ""width:200px""alt=""img"">
                                </div>
                            </div>","134","","0","images/D66.png","","","","[""Fine"",""Coarse""]"
"","","","","","html-slider-response","29","161089","0.0-23.0","5xwmolkly4","NaN","<div style=""width:500px;"">
                                <p style=""font-size:50px; font-weight:bold;""
                                ></p>
                                <div style=""width:240px; margin: auto;"">
                                    <img src=""images/D29.png"" style= ""width:200px""alt=""img"">
                                </div>
                            </div>","102","","0","images/D29.png","","","","[""Fine"",""Coarse""]"
"","","","","","html-slider-response","30","165266","0.0-24.0","5xwmolkly4","NaN","<div style=""width:500px;"">
                                <p style=""font-size:50px; font-weight:bold;""
                                ></p>
                                <div style=""width:240px; margin: auto;"">
                                    <img src=""images/D34.png"" style= ""width:200px""alt=""img"">
                                </div>
                            </div>","15","","0","images/D34.png","","","","[""Fine"",""Coarse""]"
"","","","","","html-slider-response","31","169658","0.0-25.0","5xwmolkly4","NaN","<div style=""width:500px;"">
                                <p style=""font-size:50px; font-weight:bold;""
                                ></p>
                                <div style=""width:240px; margin: auto;"">
                                    <img src=""images/D20.png"" style= ""width:200px""alt=""img"">
                                </div>
                            </div>","170","","0","images/D20.png","","","","[""Fine"",""Coarse""]"
"","","","","","html-slider-response","32","171672","0.0-26.0","5xwmolkly4","NaN","<div style=""width:500px;"">
                                <p style=""font-size:50px; font-weight:bold;""
                                ></p>
                                <div style=""width:240px; margin: auto;"">
                                    <img src=""images/D104.png"" style= ""width:200px""alt=""img"">
                                </div>
                            </div>","178","","0","images/D104.png","","","","[""Fine"",""Coarse""]"
"","","","","","html-slider-response","33","175008","0.0-27.0","5xwmolkly4","NaN","<div style=""width:500px;"">
                                <p style=""font-size:50px; font-weight:bold;""
                                ></p>
                                <div style=""width:240px; margin: auto;"">
                                    <img src=""images/D4.png"" style= ""width:200px""alt=""img"">
                                </div>
                            </div>","187","","0","images/D4.png","","","","[""Fine"",""Coarse""]"
"","","","","","html-slider-response","34","181558","0.0-28.0","5xwmolkly4","NaN","<div style=""width:500px;"">
                                <p style=""font-size:50px; font-weight:bold;""
                                ></p>
                                <div style=""width:240px; margin: auto;"">
                                    <img src=""images/D55.png"" style= ""width:200px""alt=""img"">
                                </div>
                            </div>","126","","0","images/D55.png","","","","[""Fine"",""Coarse""]"
"","","","","","html-slider-response","35","183439","0.0-29.0","5xwmolkly4","NaN","<div style=""width:500px;"">
                                <p style=""font-size:50px; font-weight:bold;""
                                ></p>
                                <div style=""width:240px; margin: auto;"">
                                    <img src=""images/D9.png"" style= ""width:200px""alt=""img"">
                                </div>
                            </div>","161","","0","images/D9.png","","","","[""Fine"",""Coarse""]"
"","","","","","html-slider-response","36","185190","0.0-30.0","5xwmolkly4","NaN","<div style=""width:500px;"">
                                <p style=""font-size:50px; font-weight:bold;""
                                ></p>
                                <div style=""width:240px; margin: auto;"">
                                    <img src=""images/D80.png"" style= ""width:200px""alt=""img"">
                                </div>
                            </div>","164","","0","images/D80.png","","","","[""Fine"",""Coarse""]"
"","","","","","html-slider-response","37","186776","0.0-31.0","5xwmolkly4","NaN","<div style=""width:500px;"">
                                <p style=""font-size:50px; font-weight:bold;""
                                ></p>
                                <div style=""width:240px; margin: auto;"">
                                    <img src=""images/D1.png"" style= ""width:200px""alt=""img"">
                                </div>
                            </div>","140","","0","images/D1.png","","","","[""Fine"",""Coarse""]"
"","","","","","html-slider-response","38","188991","0.0-32.0","5xwmolkly4","NaN","<div style=""width:500px;"">
                                <p style=""font-size:50px; font-weight:bold;""
                                ></p>
                                <div style=""width:240px; margin: auto;"">
                                    <img src=""images/D57.png"" style= ""width:200px""alt=""img"">
                                </div>
                            </div>","23","","0","images/D57.png","","","","[""Fine"",""Coarse""]"
"","","","","","html-slider-response","39","193724","0.0-33.0","5xwmolkly4","NaN","<div style=""width:500px;"">
                                <p style=""font-size:50px; font-weight:bold;""
                                ></p>
                                <div style=""width:240px; margin: auto;"">
                                    <img src=""images/D103.png"" style= ""width:200px""alt=""img"">
                                </div>
                            </div>","136","","0","images/D103.png","","","","[""Fine"",""Coarse""]"
"","","","","","html-slider-response","40","197028","0.0-34.0","5xwmolkly4","NaN","<div style=""width:500px;"">
                                <p style=""font-size:50px; font-weight:bold;""
                                ></p>
                                <div style=""width:240px; margin: auto;"">
                                    <img src=""images/D81.png"" style= ""width:200px""alt=""img"">
                                </div>
                            </div>","128","","0","images/D81.png","","","","[""Fine"",""Coarse""]"
"","","","","","html-slider-response","41","200574","0.0-35.0","5xwmolkly4","NaN","<div style=""width:500px;"">
                                <p style=""font-size:50px; font-weight:bold;""
                                ></p>
                                <div style=""width:240px; margin: auto;"">
                                    <img src=""images/D105.png"" style= ""width:200px""alt=""img"">
                                </div>
                            </div>","-36","","0","images/D105.png","","","","[""Fine"",""Coarse""]"
"","","","","","html-slider-response","42","202688","0.0-36.0","5xwmolkly4","NaN","<div style=""width:500px;"">
                                <p style=""font-size:50px; font-weight:bold;""
                                ></p>
                                <div style=""width:240px; margin: auto;"">
                                    <img src=""images/D68.png"" style= ""width:200px""alt=""img"">
                                </div>
                            </div>","30","","0","images/D68.png","","","","[""Fine"",""Coarse""]"
"","","","","","html-slider-response","43","204724","0.0-37.0","5xwmolkly4","NaN","<div style=""width:500px;"">
                                <p style=""font-size:50px; font-weight:bold;""
                                ></p>
                                <div style=""width:240px; margin: auto;"">
                                    <img src=""images/D87.png"" style= ""width:200px""alt=""img"">
                                </div>
                            </div>","146","","0","images/D87.png","","","","[""Fine"",""Coarse""]"
"","","","","","html-slider-response","44","208039","0.0-38.0","5xwmolkly4","NaN","<div style=""width:500px;"">
                                <p style=""font-size:50px; font-weight:bold;""
                                ></p>
                                <div style=""width:240px; margin: auto;"">
                                    <img src=""images/D16.png"" style= ""width:200px""alt=""img"">
                                </div>
                            </div>","-9","","0","images/D16.png","","","","[""Fine"",""Coarse""]"
"","","","","","html-slider-response","45","213260","0.0-39.0","5xwmolkly4","NaN","<div style=""width:500px;"">
                                <p style=""font-size:50px; font-weight:bold;""
                                ></p>
                                <div style=""width:240px; margin: auto;"">
                                    <img src=""images/D101.png"" style= ""width:200px""alt=""img"">
                                </div>
                            </div>","50","","0","images/D101.png","","","","[""Fine"",""Coarse""]"
"","","","","","html-slider-response","46","217240","0.0-40.0","5xwmolkly4","NaN","<div style=""width:500px;"">
                                <p style=""font-size:50px; font-weight:bold;""
                                ></p>
                                <div style=""width:240px; margin: auto;"">
                                    <img src=""images/D8.png"" style= ""width:200px""alt=""img"">
                                </div>
                            </div>","64","","0","images/D8.png","","","","[""Fine"",""Coarse""]"
"","","","","","html-slider-response","47","222989","0.0-41.0","5xwmolkly4","NaN","<div style=""width:500px;"">
                                <p style=""font-size:50px; font-weight:bold;""
                                ></p>
                                <div style=""width:240px; margin: auto;"">
                                    <img src=""images/D11.png"" style= ""width:200px""alt=""img"">
                                </div>
                            </div>","17","","0","images/D11.png","","","","[""Fine"",""Coarse""]"
"","","","","","html-slider-response","48","231345","0.0-42.0","5xwmolkly4","NaN","<div style=""width:500px;"">
                                <p style=""font-size:50px; font-weight:bold;""
                                ></p>
                                <div style=""width:240px; margin: auto;"">
                                    <img src=""images/D53.png"" style= ""width:200px""alt=""img"">
                                </div>
                            </div>","-92","","0","images/D53.png","","","","[""Fine"",""Coarse""]"
"","","","","","html-slider-response","49","233674","0.0-43.0","5xwmolkly4","NaN","<div style=""width:500px;"">
                                <p style=""font-size:50px; font-weight:bold;""
                                ></p>
                                <div style=""width:240px; margin: auto;"">
                                    <img src=""images/D6.png"" style= ""width:200px""alt=""img"">
                                </div>
                            </div>","-87","","0","images/D6.png","","","","[""Fine"",""Coarse""]"
"","","","","","html-slider-response","50","235772","0.0-44.0","5xwmolkly4","NaN","<div style=""width:500px;"">
                                <p style=""font-size:50px; font-weight:bold;""
                                ></p>
                                <div style=""width:240px; margin: auto;"">
                                    <img src=""images/D102.png"" style= ""width:200px""alt=""img"">
                                </div>
                            </div>","65","","0","images/D102.png","","","","[""Fine"",""Coarse""]"
"","","","","","html-slider-response","51","238121","0.0-45.0","5xwmolkly4","NaN","<div style=""width:500px;"">
                                <p style=""font-size:50px; font-weight:bold;""
                                ></p>
                                <div style=""width:240px; margin: auto;"">
                                    <img src=""images/D22.png"" style= ""width:200px""alt=""img"">
                                </div>
                            </div>","-22","","0","images/D22.png","","","","[""Fine"",""Coarse""]"
"","","","","","html-slider-response","52","240522","0.0-46.0","5xwmolkly4","NaN","<div style=""width:500px;"">
                                <p style=""font-size:50px; font-weight:bold;""
                                ></p>
                                <div style=""width:240px; margin: auto;"">
                                    <img src=""images/D17.png"" style= ""width:200px""alt=""img"">
                                </div>
                            </div>","-35","","0","images/D17.png","","","","[""Fine"",""Coarse""]"
"","","","","","html-slider-response","53","245689","0.0-47.0","5xwmolkly4","NaN","<div style=""width:500px;"">
                                <p style=""font-size:50px; font-weight:bold;""
                                ></p>
                                <div style=""width:240px; margin: auto;"">
                                    <img src=""images/D78.png"" style= ""width:200px""alt=""img"">
                                </div>
                            </div>","6","","0","images/D78.png","","","","[""Fine"",""Coarse""]"
"","","","","","html-slider-response","54","249326","0.0-48.0","5xwmolkly4","NaN","<div style=""width:500px;"">
                                <p style=""font-size:50px; font-weight:bold;""
                                ></p>
                                <div style=""width:240px; margin: auto;"">
                                    <img src=""images/D84.png"" style= ""width:200px""alt=""img"">
                                </div>
                            </div>","107","","0","images/D84.png","","","","[""Fine"",""Coarse""]"
"","","","","","html-slider-response","55","251722","0.0-49.0","5xwmolkly4","NaN","<div style=""width:500px;"">
                                <p style=""font-size:50px; font-weight:bold;""
                                ></p>
                                <div style=""width:240px; margin: auto;"">
                                    <img src=""images/D18.png"" style= ""width:200px""alt=""img"">
                                </div>
                            </div>","135","","0","images/D18.png","","","","[""Fine"",""Coarse""]"
"","","","","","html-slider-response","56","253138","0.0-50.0","5xwmolkly4","NaN","<div style=""width:500px;"">
                                <p style=""font-size:50px; font-weight:bold;""
                                ></p>
                                <div style=""width:240px; margin: auto;"">
                                    <img src=""images/D46.png"" style= ""width:200px""alt=""img"">
                                </div>
                            </div>","112","","0","images/D46.png","","","","[""Fine"",""Coarse""]"
"","","","","","html-slider-response","57","259195","0.0-51.0","5xwmolkly4","NaN","<div style=""width:500px;"">
                                <p style=""font-size:50px; font-weight:bold;""
                                ></p>
                                <div style=""width:240px; margin: auto;"">
                                    <img src=""images/D77.png"" style= ""width:200px""alt=""img"">
                                </div>
                            </div>","-86","","0","images/D77.png","","","","[""Fine"",""Coarse""]"
"","","","","","html-slider-response","58","262722","0.0-52.0","5xwmolkly4","NaN","<div style=""width:500px;"">
                                <p style=""font-size:50px; font-weight:bold;""
                                ></p>
                                <div style=""width:240px; margin: auto;"">
                                    <img src=""images/D24.png"" style= ""width:200px""alt=""img"">
                                </div>
                            </div>","18","","0","images/D24.png","","","","[""Fine"",""Coarse""]"
"","","","","","html-slider-response","59","264306","0.0-53.0","5xwmolkly4","NaN","<div style=""width:500px;"">
                                <p style=""font-size:50px; font-weight:bold;""
                                ></p>
                                <div style=""width:240px; margin: auto;"">
                                    <img src=""images/D65.png"" style= ""width:200px""alt=""img"">
                                </div>
                            </div>","49","","0","images/D65.png","","","","[""Fine"",""Coarse""]"
"","","","","","html-slider-response","60","269988","0.0-54.0","5xwmolkly4","NaN","<div style=""width:500px;"">
                                <p style=""font-size:50px; font-weight:bold;""
                                ></p>
                                <div style=""width:240px; margin: auto;"">
                                    <img src=""images/D26.png"" style= ""width:200px""alt=""img"">
                                </div>
                            </div>","-32","","0","images/D26.png","","","","[""Fine"",""Coarse""]"
"","","","","","html-slider-response","61","272370","0.0-55.0","5xwmolkly4","NaN","<div style=""width:500px;"">
                                <p style=""font-size:50px; font-weight:bold;""
                                ></p>
                                <div style=""width:240px; margin: auto;"">
                                    <img src=""images/D85.png"" style= ""width:200px""alt=""img"">
                                </div>
                            </div>","-110","","0","images/D85.png","","","","[""Fine"",""Coarse""]"
"","","","","","html-slider-response","62","276057","0.0-56.0","5xwmolkly4","NaN","<div style=""width:500px;"">
                                <p style=""font-size:50px; font-weight:bold;""
                                ></p>
                                <div style=""width:240px; margin: auto;"">
                                    <img src=""images/D56.png"" style= ""width:200px""alt=""img"">
                                </div>
                            </div>","100","","0","images/D56.png","","","","[""Fine"",""Coarse""]"
"","","","","","html-slider-response","63","279488","0.0-57.0","5xwmolkly4","NaN","<div style=""width:500px;"">
                                <p style=""font-size:50px; font-weight:bold;""
                                ></p>
                                <div style=""width:240px; margin: auto;"">
                                    <img src=""images/D19.png"" style= ""width:200px""alt=""img"">
                                </div>
                            </div>","46","","0","images/D19.png","","","","[""Fine"",""Coarse""]"
"","","","","","html-slider-response","64","281772","0.0-58.0","5xwmolkly4","NaN","<div style=""width:500px;"">
                                <p style=""font-size:50px; font-weight:bold;""
                                ></p>
                                <div style=""width:240px; margin: auto;"">
                                    <img src=""images/D14.png"" style= ""width:200px""alt=""img"">
                                </div>
                            </div>","-30","","0","images/D14.png","","","","[""Fine"",""Coarse""]"
"","","","","","html-slider-response","65","285376","0.0-59.0","5xwmolkly4","NaN","<div style=""width:500px;"">
                                <p style=""font-size:50px; font-weight:bold;""
                                ></p>
                                <div style=""width:240px; margin: auto;"">
                                    <img src=""images/D32.png"" style= ""width:200px""alt=""img"">
                                </div>
                            </div>","-139","","0","images/D32.png","","","","[""Fine"",""Coarse""]"
"","","","","","html-slider-response","66","291425","0.0-60.0","5xwmolkly4","NaN","<div style=""width:500px;"">
                                <p style=""font-size:50px; font-weight:bold;""
                                ></p>
                                <div style=""width:240px; margin: auto;"">
                                    <img src=""images/D64.png"" style= ""width:200px""alt=""img"">
                                </div>
                            </div>","123","","0","images/D64.png","","","","[""Fine"",""Coarse""]"
"","","","","","html-slider-response","67","294571","0.0-61.0","5xwmolkly4","NaN","<div style=""width:500px;"">
                                <p style=""font-size:50px; font-weight:bold;""
                                ></p>
                                <div style=""width:240px; margin: auto;"">
                                    <img src=""images/D21.png"" style= ""width:200px""alt=""img"">
                                </div>
                            </div>","-167","","0","images/D21.png","","","","[""Fine"",""Coarse""]"
"","","","","","html-slider-response","68","296340","0.0-62.0","5xwmolkly4","NaN","<div style=""width:500px;"">
                                <p style=""font-size:50px; font-weight:bold;""
                                ></p>
                                <div style=""width:240px; margin: auto;"">
                                    <img src=""images/D106.png"" style= ""width:200px""alt=""img"">
                                </div>
                            </div>","-108","","0","images/D106.png","","","","[""Fine"",""Coarse""]"
"","","","","","html-slider-response","69","300705","0.0-63.0","5xwmolkly4","NaN","<div style=""width:500px;"">
                                <p style=""font-size:50px; font-weight:bold;""
                                ></p>
                                <div style=""width:240px; margin: auto;"">
                                    <img src=""images/D36.png"" style= ""width:200px""alt=""img"">
                                </div>
                            </div>","42","","0","images/D36.png","","","","[""Fine"",""Coarse""]"
"","","","","","html-slider-response","70","307557","0.0-64.0","5xwmolkly4","NaN","<div style=""width:500px;"">
                                <p style=""font-size:50px; font-weight:bold;""
                                ></p>
                                <div style=""width:240px; margin: auto;"">
                                    <img src=""images/D79.png"" style= ""width:200px""alt=""img"">
                                </div>
                            </div>","-10","","0","images/D79.png","","","","[""Fine"",""Coarse""]"
"","","","","","html-slider-response","71","309604","0.0-65.0","5xwmolkly4","NaN","<div style=""width:500px;"">
                                <p style=""font-size:50px; font-weight:bold;""
                                ></p>
                                <div style=""width:240px; margin: auto;"">
                                    <img src=""images/D111.png"" style= ""width:200px""alt=""img"">
                                </div>
                            </div>","114","","0","images/D111.png","","","","[""Fine"",""Coarse""]"
"","","","","","html-slider-response","72","311606","0.0-66.0","5xwmolkly4","NaN","<div style=""width:500px;"">
                                <p style=""font-size:50px; font-weight:bold;""
                                ></p>
                                <div style=""width:240px; margin: auto;"">
                                    <img src=""images/D96.png"" style= ""width:200px""alt=""img"">
                                </div>
                            </div>","70","","0","images/D96.png","","","","[""Fine"",""Coarse""]"
"","","","","","html-slider-response","73","313238","0.0-67.0","5xwmolkly4","NaN","<div style=""width:500px;"">
                                <p style=""font-size:50px; font-weight:bold;""
                                ></p>
                                <div style=""width:240px; margin: auto;"">
                                    <img src=""images/D82.png"" style= ""width:200px""alt=""img"">
                                </div>
                            </div>","54","","0","images/D82.png","","","","[""Fine"",""Coarse""]"
"","","","","","html-slider-response","74","316071","0.0-68.0","5xwmolkly4","NaN","<div style=""width:500px;"">
                                <p style=""font-size:50px; font-weight:bold;""
                                ></p>
                                <div style=""width:240px; margin: auto;"">
                                    <img src=""images/D47.png"" style= ""width:200px""alt=""img"">
                                </div>
                            </div>","104","","0","images/D47.png","","","","[""Fine"",""Coarse""]"
"","","","","","html-slider-response","75","317622","0.0-69.0","5xwmolkly4","NaN","<div style=""width:500px;"">
                                <p style=""font-size:50px; font-weight:bold;""
                                ></p>
                                <div style=""width:240px; margin: auto;"">
                                    <img src=""images/D74.png"" style= ""width:200px""alt=""img"">
                                </div>
                            </div>","91","","0","images/D74.png","","","","[""Fine"",""Coarse""]"
"","","","","","html-slider-response","76","319321","0.0-70.0","5xwmolkly4","NaN","<div style=""width:500px;"">
                                <p style=""font-size:50px; font-weight:bold;""
                                ></p>
                                <div style=""width:240px; margin: auto;"">
                                    <img src=""images/D75.png"" style= ""width:200px""alt=""img"">
                                </div>
                            </div>","154","","0","images/D75.png","","","","[""Fine"",""Coarse""]"
"","","","","","html-slider-response","77","322038","0.0-71.0","5xwmolkly4","NaN","<div style=""width:500px;"">
                                <p style=""font-size:50px; font-weight:bold;""
                                ></p>
                                <div style=""width:240px; margin: auto;"">
                                    <img src=""images/D49.png"" style= ""width:200px""alt=""img"">
                                </div>
                            </div>","-110","","0","images/D49.png","","","","[""Fine"",""Coarse""]"
"","","","","","html-slider-response","78","324289","0.0-72.0","5xwmolkly4","NaN","<div style=""width:500px;"">
                                <p style=""font-size:50px; font-weight:bold;""
                                ></p>
                                <div style=""width:240px; margin: auto;"">
                                    <img src=""images/D51.png"" style= ""width:200px""alt=""img"">
                                </div>
                            </div>","-54","","0","images/D51.png","","","","[""Fine"",""Coarse""]"
"","","","","","html-slider-response","79","330574","0.0-73.0","5xwmolkly4","NaN","<div style=""width:500px;"">
                                <p style=""font-size:50px; font-weight:bold;""
                                ></p>
                                <div style=""width:240px; margin: auto;"">
                                    <img src=""images/D25.png"" style= ""width:200px""alt=""img"">
                                </div>
                            </div>","-133","","0","images/D25.png","","","","[""Fine"",""Coarse""]"
"","","","","","html-slider-response","80","336172","0.0-74.0","5xwmolkly4","NaN","<div style=""width:500px;"">
                                <p style=""font-size:50px; font-weight:bold;""
                                ></p>
                                <div style=""width:240px; margin: auto;"">
                                    <img src=""images/D95.png"" style= ""width:200px""alt=""img"">
                                </div>
                            </div>","-69","","0","images/D95.png","","","","[""Fine"",""Coarse""]"
"","","","","","html-slider-response","81","337891","0.0-75.0","5xwmolkly4","NaN","<div style=""width:500px;"">
                                <p style=""font-size:50px; font-weight:bold;""
                                ></p>
                                <div style=""width:240px; margin: auto;"">
                                    <img src=""images/D37.png"" style= ""width:200px""alt=""img"">
                                </div>
                            </div>","55","","0","images/D37.png","","","","[""Fine"",""Coarse""]"
"","","","","","html-button-response","82","340010","0.0-76.0","5xwmolkly4","1617","You have completed the first block of trials out of six. Please click 'Continue' when you are ready proceed.","0","","","","","","",""
"","","","","","html-button-response","83","341879","0.0-77.0","5xwmolkly4","1869","In the following trials, you will be asked to rate textures on the scale <b>Soft</b> versus <b>Hard</b>. Please click 'Continue' when you are ready proceed.","0","","","","","","",""
"","","","","","html-slider-response","84","345755","0.0-78.0","5xwmolkly4","NaN","<div style=""width:500px;"">
                                <p style=""font-size:50px; font-weight:bold;""
                                ></p>
                                <div style=""width:240px; margin: auto;"">
                                    <img src=""images/D49.png"" style= ""width:200px""alt=""img"">
                                </div>
                            </div>","74","","0","images/D49.png","","","","[""Hard"",""Soft""]"
"","","","","","html-slider-response","85","348339","0.0-79.0","5xwmolkly4","NaN","<div style=""width:500px;"">
                                <p style=""font-size:50px; font-weight:bold;""
                                ></p>
                                <div style=""width:240px; margin: auto;"">
                                    <img src=""images/D106.png"" style= ""width:200px""alt=""img"">
                                </div>
                            </div>","166","","0","images/D106.png","","","","[""Hard"",""Soft""]"
"","","","","","html-slider-response","86","350691","0.0-80.0","5xwmolkly4","NaN","<div style=""width:500px;"">
                                <p style=""font-size:50px; font-weight:bold;""
                                ></p>
                                <div style=""width:240px; margin: auto;"">
                                    <img src=""images/D47.png"" style= ""width:200px""alt=""img"">
                                </div>
                            </div>","-46","","0","images/D47.png","","","","[""Hard"",""Soft""]"
"","","","","","html-slider-response","87","353788","0.0-81.0","5xwmolkly4","NaN","<div style=""width:500px;"">
                                <p style=""font-size:50px; font-weight:bold;""
                                ></p>
                                <div style=""width:240px; margin: auto;"">
                                    <img src=""images/D79.png"" style= ""width:200px""alt=""img"">
                                </div>
                            </div>","77","","0","images/D79.png","","","","[""Hard"",""Soft""]"
"","","","","","html-slider-response","88","357522","0.0-82.0","5xwmolkly4","NaN","<div style=""width:500px;"">
                                <p style=""font-size:50px; font-weight:bold;""
                                ></p>
                                <div style=""width:240px; margin: auto;"">
                                    <img src=""images/D102.png"" style= ""width:200px""alt=""img"">
                                </div>
                            </div>","-105","","0","images/D102.png","","","","[""Hard"",""Soft""]"
"","","","","","html-slider-response","89","359856","0.0-83.0","5xwmolkly4","NaN","<div style=""width:500px;"">
                                <p style=""font-size:50px; font-weight:bold;""
                                ></p>
                                <div style=""width:240px; margin: auto;"">
                                    <img src=""images/D85.png"" style= ""width:200px""alt=""img"">
                                </div>
                            </div>","38","","0","images/D85.png","","","","[""Hard"",""Soft""]"
"","","","","","html-slider-response","90","363654","0.0-84.0","5xwmolkly4","NaN","<div style=""width:500px;"">
                                <p style=""font-size:50px; font-weight:bold;""
                                ></p>
                                <div style=""width:240px; margin: auto;"">
                                    <img src=""images/D24.png"" style= ""width:200px""alt=""img"">
                                </div>
                            </div>","11","","0","images/D24.png","","","","[""Hard"",""Soft""]"
"","","","","","html-slider-response","91","382094","0.0-85.0","5xwmolkly4","NaN","<div style=""width:500px;"">
                                <p style=""font-size:50px; font-weight:bold;""
                                ></p>
                                <div style=""width:240px; margin: auto;"">
                                    <img src=""images/D19.png"" style= ""width:200px""alt=""img"">
                                </div>
                            </div>","6","","0","images/D19.png","","","","[""Hard"",""Soft""]"
"","","","","","html-slider-response","92","386021","0.0-86.0","5xwmolkly4","NaN","<div style=""width:500px;"">
                                <p style=""font-size:50px; font-weight:bold;""
                                ></p>
                                <div style=""width:240px; margin: auto;"">
                                    <img src=""images/D25.png"" style= ""width:200px""alt=""img"">
                                </div>
                            </div>","-115","","0","images/D25.png","","","","[""Hard"",""Soft""]"
"","","","","","html-slider-response","93","388888","0.0-87.0","5xwmolkly4","NaN","<div style=""width:500px;"">
                                <p style=""font-size:50px; font-weight:bold;""
                                ></p>
                                <div style=""width:240px; margin: auto;"">
                                    <img src=""images/D48.png"" style= ""width:200px""alt=""img"">
                                </div>
                            </div>","75","","0","images/D48.png","","","","[""Hard"",""Soft""]"
"","","","","","html-slider-response","94","391221","0.0-88.0","5xwmolkly4","NaN","<div style=""width:500px;"">
                                <p style=""font-size:50px; font-weight:bold;""
                                ></p>
                                <div style=""width:240px; margin: auto;"">
                                    <img src=""images/D22.png"" style= ""width:200px""alt=""img"">
                                </div>
                            </div>","64","","0","images/D22.png","","","","[""Hard"",""Soft""]"
"","","","","","html-slider-response","95","393238","0.0-89.0","5xwmolkly4","NaN","<div style=""width:500px;"">
                                <p style=""font-size:50px; font-weight:bold;""
                                ></p>
                                <div style=""width:240px; margin: auto;"">
                                    <img src=""images/D81.png"" style= ""width:200px""alt=""img"">
                                </div>
                            </div>","97","","0","images/D81.png","","","","[""Hard"",""Soft""]"
"","","","","","html-slider-response","96","397671","0.0-90.0","5xwmolkly4","NaN","<div style=""width:500px;"">
                                <p style=""font-size:50px; font-weight:bold;""
                                ></p>
                                <div style=""width:240px; margin: auto;"">
                                    <img src=""images/D64.png"" style= ""width:200px""alt=""img"">
                                </div>
                            </div>","-25","","0","images/D64.png","","","","[""Hard"",""Soft""]"
"","","","","","html-slider-response","97","402772","0.0-91.0","5xwmolkly4","NaN","<div style=""width:500px;"">
                                <p style=""font-size:50px; font-weight:bold;""
                                ></p>
                                <div style=""width:240px; margin: auto;"">
                                    <img src=""images/D9.png"" style= ""width:200px""alt=""img"">
                                </div>
                            </div>","94","","0","images/D9.png","","","","[""Hard"",""Soft""]"
"","","","","","html-slider-response","98","405055","0.0-92.0","5xwmolkly4","NaN","<div style=""width:500px;"">
                                <p style=""font-size:50px; font-weight:bold;""
                                ></p>
                                <div style=""width:240px; margin: auto;"">
                                    <img src=""images/D6.png"" style= ""width:200px""alt=""img"">
                                </div>
                            </div>","113","","0","images/D6.png","","","","[""Hard"",""Soft""]"
"","","","","","html-slider-response","99","411854","0.0-93.0","5xwmolkly4","NaN","<div style=""width:500px;"">
                                <p style=""font-size:50px; font-weight:bold;""
                                ></p>
                                <div style=""width:240px; margin: auto;"">
                                    <img src=""images/D75.png"" style= ""width:200px""alt=""img"">
                                </div>
                            </div>","16","","0","images/D75.png","","","","[""Hard"",""Soft""]"
"","","","","","html-slider-response","100","438790","0.0-94.0","5xwmolkly4","NaN","<div style=""width:500px;"">
                                <p style=""font-size:50px; font-weight:bold;""
                                ></p>
                                <div style=""width:240px; margin: auto;"">
                                    <img src=""images/D68.png"" style= ""width:200px""alt=""img"">
                                </div>
                            </div>","153","","0","images/D68.png","","","","[""Hard"",""Soft""]"
"","","","","","html-slider-response","101","440923","0.0-95.0","5xwmolkly4","NaN","<div style=""width:500px;"">
                                <p style=""font-size:50px; font-weight:bold;""
                                ></p>
                                <div style=""width:240px; margin: auto;"">
                                    <img src=""images/D26.png"" style= ""width:200px""alt=""img"">
                                </div>
                            </div>","-31","","0","images/D26.png","","","","[""Hard"",""Soft""]"
"","","","","","html-slider-response","102","443454","0.0-96.0","5xwmolkly4","NaN","<div style=""width:500px;"">
                                <p style=""font-size:50px; font-weight:bold;""
                                ></p>
                                <div style=""width:240px; margin: auto;"">
                                    <img src=""images/D14.png"" style= ""width:200px""alt=""img"">
                                </div>
                            </div>","122","","0","images/D14.png","","","","[""Hard"",""Soft""]"
"","","","","","html-slider-response","103","445887","0.0-97.0","5xwmolkly4","NaN","<div style=""width:500px;"">
                                <p style=""font-size:50px; font-weight:bold;""
                                ></p>
                                <div style=""width:240px; margin: auto;"">
                                    <img src=""images/D11.png"" style= ""width:200px""alt=""img"">
                                </div>
                            </div>","66","","0","images/D11.png","","","","[""Hard"",""Soft""]"
"","","","","","html-slider-response","104","448222","0.0-98.0","5xwmolkly4","NaN","<div style=""width:500px;"">
                                <p style=""font-size:50px; font-weight:bold;""
                                ></p>
                                <div style=""width:240px; margin: auto;"">
                                    <img src=""images/D17.png"" style= ""width:200px""alt=""img"">
                                </div>
                            </div>","47","","0","images/D17.png","","","","[""Hard"",""Soft""]"
"","","","","","html-slider-response","105","450504","0.0-99.0","5xwmolkly4","NaN","<div style=""width:500px;"">
                                <p style=""font-size:50px; font-weight:bold;""
                                ></p>
                                <div style=""width:240px; margin: auto;"">
                                    <img src=""images/D29.png"" style= ""width:200px""alt=""img"">
                                </div>
                            </div>","-149","","0","images/D29.png","","","","[""Hard"",""Soft""]"
"","","","","","html-slider-response","106","452305","0.0-100.0","5xwmolkly4","NaN","<div style=""width:500px;"">
                                <p style=""font-size:50px; font-weight:bold;""
                                ></p>
                                <div style=""width:240px; margin: auto;"">
                                    <img src=""images/D96.png"" style= ""width:200px""alt=""img"">
                                </div>
                            </div>","-136","","0","images/D96.png","","","","[""Hard"",""Soft""]"
"","","","","","html-slider-response","107","454812","0.0-101.0","5xwmolkly4","NaN","<div style=""width:500px;"">
                                <p style=""font-size:50px; font-weight:bold;""
                                ></p>
                                <div style=""width:240px; margin: auto;"">
                                    <img src=""images/D51.png"" style= ""width:200px""alt=""img"">
                                </div>
                            </div>","-132","","0","images/D51.png","","","","[""Hard"",""Soft""]"
"","","","","","html-slider-response","108","457337","0.0-102.0","5xwmolkly4","NaN","<div style=""width:500px;"">
                                <p style=""font-size:50px; font-weight:bold;""
                                ></p>
                                <div style=""width:240px; margin: auto;"">
                                    <img src=""images/D105.png"" style= ""width:200px""alt=""img"">
                                </div>
                            </div>","148","","0","images/D105.png","","","","[""Hard"",""Soft""]"
"","","","","","html-slider-response","109","461709","0.0-103.0","5xwmolkly4","NaN","<div style=""width:500px;"">
                                <p style=""font-size:50px; font-weight:bold;""
                                ></p>
                                <div style=""width:240px; margin: auto;"">
                                    <img src=""images/D65.png"" style= ""width:200px""alt=""img"">
                                </div>
                            </div>","-182","","0","images/D65.png","","","","[""Hard"",""Soft""]"
"","","","","","html-slider-response","110","466656","0.0-104.0","5xwmolkly4","NaN","<div style=""width:500px;"">
                                <p style=""font-size:50px; font-weight:bold;""
                                ></p>
                                <div style=""width:240px; margin: auto;"">
                                    <img src=""images/D78.png"" style= ""width:200px""alt=""img"">
                                </div>
                            </div>","102","","0","images/D78.png","","","","[""Hard"",""Soft""]"
"","","","","","html-slider-response","111","469004","0.0-105.0","5xwmolkly4","NaN","<div style=""width:500px;"">
                                <p style=""font-size:50px; font-weight:bold;""
                                ></p>
                                <div style=""width:240px; margin: auto;"">
                                    <img src=""images/D57.png"" style= ""width:200px""alt=""img"">
                                </div>
                            </div>","-49","","0","images/D57.png","","","","[""Hard"",""Soft""]"
"","","","","","html-slider-response","112","471203","0.0-106.0","5xwmolkly4","NaN","<div style=""width:500px;"">
                                <p style=""font-size:50px; font-weight:bold;""
                                ></p>
                                <div style=""width:240px; margin: auto;"">
                                    <img src=""images/D53.png"" style= ""width:200px""alt=""img"">
                                </div>
                            </div>","81","","0","images/D53.png","","","","[""Hard"",""Soft""]"
"","","","","","html-slider-response","113","478778","0.0-107.0","5xwmolkly4","NaN","<div style=""width:500px;"">
                                <p style=""font-size:50px; font-weight:bold;""
                                ></p>
                                <div style=""width:240px; margin: auto;"">
                                    <img src=""images/D101.png"" style= ""width:200px""alt=""img"">
                                </div>
                            </div>","-82","","0","images/D101.png","","","","[""Hard"",""Soft""]"
"","","","","","html-slider-response","114","480725","0.0-108.0","5xwmolkly4","NaN","<div style=""width:500px;"">
                                <p style=""font-size:50px; font-weight:bold;""
                                ></p>
                                <div style=""width:240px; margin: auto;"">
                                    <img src=""images/D95.png"" style= ""width:200px""alt=""img"">
                                </div>
                            </div>","-85","","0","images/D95.png","","","","[""Hard"",""Soft""]"
"","","","","","html-slider-response","115","483705","0.0-109.0","5xwmolkly4","NaN","<div style=""width:500px;"">
                                <p style=""font-size:50px; font-weight:bold;""
                                ></p>
                                <div style=""width:240px; margin: auto;"">
                                    <img src=""images/D56.png"" style= ""width:200px""alt=""img"">
                                </div>
                            </div>","161","","0","images/D56.png","","","","[""Hard"",""Soft""]"
"","","","","","html-slider-response","116","488251","0.0-110.0","5xwmolkly4","NaN","<div style=""width:500px;"">
                                <p style=""font-size:50px; font-weight:bold;""
                                ></p>
                                <div style=""width:240px; margin: auto;"">
                                    <img src=""images/D21.png"" style= ""width:200px""alt=""img"">
                                </div>
                            </div>","67","","0","images/D21.png","","","","[""Hard"",""Soft""]"
"","","","","","html-slider-response","117","501313","0.0-111.0","5xwmolkly4","NaN","<div style=""width:500px;"">
                                <p style=""font-size:50px; font-weight:bold;""
                                ></p>
                                <div style=""width:240px; margin: auto;"">
                                    <img src=""images/D8.png"" style= ""width:200px""alt=""img"">
                                </div>
                            </div>","62","","0","images/D8.png","","","","[""Hard"",""Soft""]"
"","","","","","html-slider-response","118","503260","0.0-112.0","5xwmolkly4","NaN","<div style=""width:500px;"">
                                <p style=""font-size:50px; font-weight:bold;""
                                ></p>
                                <div style=""width:240px; margin: auto;"">
                                    <img src=""images/D76.png"" style= ""width:200px""alt=""img"">
                                </div>
                            </div>","69","","0","images/D76.png","","","","[""Hard"",""Soft""]"
"","","","","","html-slider-response","119","505460","0.0-113.0","5xwmolkly4","NaN","<div style=""width:500px;"">
                                <p style=""font-size:50px; font-weight:bold;""
                                ></p>
                                <div style=""width:240px; margin: auto;"">
                                    <img src=""images/D66.png"" style= ""width:200px""alt=""img"">
                                </div>
                            </div>","-34","","0","images/D66.png","","","","[""Hard"",""Soft""]"
"","","","","","html-slider-response","120","513479","0.0-114.0","5xwmolkly4","NaN","<div style=""width:500px;"">
                                <p style=""font-size:50px; font-weight:bold;""
                                ></p>
                                <div style=""width:240px; margin: auto;"">
                                    <img src=""images/D37.png"" style= ""width:200px""alt=""img"">
                                </div>
                            </div>","-32","","0","images/D37.png","","","","[""Hard"",""Soft""]"
"","","","","","html-slider-response","121","515708","0.0-115.0","5xwmolkly4","NaN","<div style=""width:500px;"">
                                <p style=""font-size:50px; font-weight:bold;""
                                ></p>
                                <div style=""width:240px; margin: auto;"">
                                    <img src=""images/D34.png"" style= ""width:200px""alt=""img"">
                                </div>
                            </div>","-30","","0","images/D34.png","","","","[""Hard"",""Soft""]"
"","","","","","html-slider-response","122","524359","0.0-116.0","5xwmolkly4","NaN","<div style=""width:500px;"">
                                <p style=""font-size:50px; font-weight:bold;""
                                ></p>
                                <div style=""width:240px; margin: auto;"">
                                    <img src=""images/D92.png"" style= ""width:200px""alt=""img"">
                                </div>
                            </div>","-107","","0","images/D92.png","","","","[""Hard"",""Soft""]"
"","","","","","html-slider-response","123","528341","0.0-117.0","5xwmolkly4","NaN","<div style=""width:500px;"">
                                <p style=""font-size:50px; font-weight:bold;""
                                ></p>
                                <div style=""width:240px; margin: auto;"">
                                    <img src=""images/D20.png"" style= ""width:200px""alt=""img"">
                                </div>
                            </div>","-89","","0","images/D20.png","","","","[""Hard"",""Soft""]"
"","","","","","html-slider-response","124","534592","0.0-118.0","5xwmolkly4","NaN","<div style=""width:500px;"">
                                <p style=""font-size:50px; font-weight:bold;""
                                ></p>
                                <div style=""width:240px; margin: auto;"">
                                    <img src=""images/D35.png"" style= ""width:200px""alt=""img"">
                                </div>
                            </div>","-72","","0","images/D35.png","","","","[""Hard"",""Soft""]"
"","","","","","html-slider-response","125","545356","0.0-119.0","5xwmolkly4","NaN","<div style=""width:500px;"">
                                <p style=""font-size:50px; font-weight:bold;""
                                ></p>
                                <div style=""width:240px; margin: auto;"">
                                    <img src=""images/D16.png"" style= ""width:200px""alt=""img"">
                                </div>
                            </div>","131","","0","images/D16.png","","","","[""Hard"",""Soft""]"
"","","","","","html-slider-response","126","547609","0.0-120.0","5xwmolkly4","NaN","<div style=""width:500px;"">
                                <p style=""font-size:50px; font-weight:bold;""
                                ></p>
                                <div style=""width:240px; margin: auto;"">
                                    <img src=""images/D52.png"" style= ""width:200px""alt=""img"">
                                </div>
                            </div>","-56","","0","images/D52.png","","","","[""Hard"",""Soft""]"
"","","","","","html-slider-response","127","552023","0.0-121.0","5xwmolkly4","NaN","<div style=""width:500px;"">
                                <p style=""font-size:50px; font-weight:bold;""
                                ></p>
                                <div style=""width:240px; margin: auto;"">
                                    <img src=""images/D55.png"" style= ""width:200px""alt=""img"">
                                </div>
                            </div>","-37","","0","images/D55.png","","","","[""Hard"",""Soft""]"
"","","","","","html-slider-response","128","555456","0.0-122.0","5xwmolkly4","NaN","<div style=""width:500px;"">
                                <p style=""font-size:50px; font-weight:bold;""
                                ></p>
                                <div style=""width:240px; margin: auto;"">
                                    <img src=""images/D3.png"" style= ""width:200px""alt=""img"">
                                </div>
                            </div>","-59","","0","images/D3.png","","","","[""Hard"",""Soft""]"
"","","","","","html-slider-response","129","557539","0.0-123.0","5xwmolkly4","NaN","<div style=""width:500px;"">
                                <p style=""font-size:50px; font-weight:bold;""
                                ></p>
                                <div style=""width:240px; margin: auto;"">
                                    <img src=""images/D1.png"" style= ""width:200px""alt=""img"">
                                </div>
                            </div>","-90","","0","images/D1.png","","","","[""Hard"",""Soft""]"
"","","","","","html-slider-response","130","561406","0.0-124.0","5xwmolkly4","NaN","<div style=""width:500px;"">
                                <p style=""font-size:50px; font-weight:bold;""
                                ></p>
                                <div style=""width:240px; margin: auto;"">
                                    <img src=""images/D103.png"" style= ""width:200px""alt=""img"">
                                </div>
                            </div>","15","","0","images/D103.png","","","","[""Hard"",""Soft""]"
"","","","","","html-slider-response","131","566058","0.0-125.0","5xwmolkly4","NaN","<div style=""width:500px;"">
                                <p style=""font-size:50px; font-weight:bold;""
                                ></p>
                                <div style=""width:240px; margin: auto;"">
                                    <img src=""images/D74.png"" style= ""width:200px""alt=""img"">
                                </div>
                            </div>","-200","","0","images/D74.png","","","","[""Hard"",""Soft""]"
"","","","","","html-slider-response","132","568756","0.0-126.0","5xwmolkly4","NaN","<div style=""width:500px;"">
                                <p style=""font-size:50px; font-weight:bold;""
                                ></p>
                                <div style=""width:240px; margin: auto;"">
                                    <img src=""images/D84.png"" style= ""width:200px""alt=""img"">
                                </div>
                            </div>","-131","","0","images/D84.png","","","","[""Hard"",""Soft""]"
"","","","","","html-slider-response","133","572725","0.0-127.0","5xwmolkly4","NaN","<div style=""width:500px;"">
                                <p style=""font-size:50px; font-weight:bold;""
                                ></p>
                                <div style=""width:240px; margin: auto;"">
                                    <img src=""images/D77.png"" style= ""width:200px""alt=""img"">
                                </div>
                            </div>","113","","0","images/D77.png","","","","[""Hard"",""Soft""]"
"","","","","","html-slider-response","134","590830","0.0-128.0","5xwmolkly4","NaN","<div style=""width:500px;"">
                                <p style=""font-size:50px; font-weight:bold;""
                                ></p>
                                <div style=""width:240px; margin: auto;"">
                                    <img src=""images/D80.png"" style= ""width:200px""alt=""img"">
                                </div>
                            </div>","15","","0","images/D80.png","","","","[""Hard"",""Soft""]"
"","","","","","html-slider-response","135","595390","0.0-129.0","5xwmolkly4","NaN","<div style=""width:500px;"">
                                <p style=""font-size:50px; font-weight:bold;""
                                ></p>
                                <div style=""width:240px; margin: auto;"">
                                    <img src=""images/D36.png"" style= ""width:200px""alt=""img"">
                                </div>
                            </div>","-32","","0","images/D36.png","","","","[""Hard"",""Soft""]"
"","","","","","html-slider-response","136","597855","0.0-130.0","5xwmolkly4","NaN","<div style=""width:500px;"">
                                <p style=""font-size:50px; font-weight:bold;""
                                ></p>
                                <div style=""width:240px; margin: auto;"">
                                    <img src=""images/D4.png"" style= ""width:200px""alt=""img"">
                                </div>
                            </div>","62","","0","images/D4.png","","","","[""Hard"",""Soft""]"
"","","","","","html-slider-response","137","608571","0.0-131.0","5xwmolkly4","NaN","<div style=""width:500px;"">
                                <p style=""font-size:50px; font-weight:bold;""
                                ></p>
                                <div style=""width:240px; margin: auto;"">
                                    <img src=""images/D32.png"" style= ""width:200px""alt=""img"">
                                </div>
                            </div>","-34","","0","images/D32.png","","","","[""Hard"",""Soft""]"
"","","","","","html-slider-response","138","619856","0.0-132.0","5xwmolkly4","NaN","<div style=""width:500px;"">
                                <p style=""font-size:50px; font-weight:bold;""
                                ></p>
                                <div style=""width:240px; margin: auto;"">
                                    <img src=""images/D87.png"" style= ""width:200px""alt=""img"">
                                </div>
                            </div>","-28","","0","images/D87.png","","","","[""Hard"",""Soft""]"
"","","","","","html-slider-response","139","622705","0.0-133.0","5xwmolkly4","NaN","<div style=""width:500px;"">
                                <p style=""font-size:50px; font-weight:bold;""
                                ></p>
                                <div style=""width:240px; margin: auto;"">
                                    <img src=""images/D104.png"" style= ""width:200px""alt=""img"">
                                </div>
                            </div>","6","","0","images/D104.png","","","","[""Hard"",""Soft""]"
"","","","","","html-slider-response","140","630810","0.0-134.0","5xwmolkly4","NaN","<div style=""width:500px;"">
                                <p style=""font-size:50px; font-weight:bold;""
                                ></p>
                                <div style=""width:240px; margin: auto;"">
                                    <img src=""images/D83.png"" style= ""width:200px""alt=""img"">
                                </div>
                            </div>","22","","0","images/D83.png","","","","[""Hard"",""Soft""]"
"","","","","","html-slider-response","141","639805","0.0-135.0","5xwmolkly4","NaN","<div style=""width:500px;"">
                                <p style=""font-size:50px; font-weight:bold;""
                                ></p>
                                <div style=""width:240px; margin: auto;"">
                                    <img src=""images/D111.png"" style= ""width:200px""alt=""img"">
                                </div>
                            </div>","-71","","0","images/D111.png","","","","[""Hard"",""Soft""]"
"","","","","","html-slider-response","142","642087","0.0-136.0","5xwmolkly4","NaN","<div style=""width:500px;"">
                                <p style=""font-size:50px; font-weight:bold;""
                                ></p>
                                <div style=""width:240px; margin: auto;"">
                                    <img src=""images/D46.png"" style= ""width:200px""alt=""img"">
                                </div>
                            </div>","-114","","0","images/D46.png","","","","[""Hard"",""Soft""]"
"","","","","","html-slider-response","143","646021","0.0-137.0","5xwmolkly4","NaN","<div style=""width:500px;"">
                                <p style=""font-size:50px; font-weight:bold;""
                                ></p>
                                <div style=""width:240px; margin: auto;"">
                                    <img src=""images/D18.png"" style= ""width:200px""alt=""img"">
                                </div>
                            </div>","-127","","0","images/D18.png","","","","[""Hard"",""Soft""]"
"","","","","","html-slider-response","144","649354","0.0-138.0","5xwmolkly4","NaN","<div style=""width:500px;"">
                                <p style=""font-size:50px; font-weight:bold;""
                                ></p>
                                <div style=""width:240px; margin: auto;"">
                                    <img src=""images/D82.png"" style= ""width:200px""alt=""img"">
                                </div>
                            </div>","99","","0","images/D82.png","","","","[""Hard"",""Soft""]"
"","","","","","html-slider-response","145","656889","0.0-139.0","5xwmolkly4","NaN","<div style=""width:500px;"">
                                <p style=""font-size:50px; font-weight:bold;""
                                ></p>
                                <div style=""width:240px; margin: auto;"">
                                    <img src=""images/D94.png"" style= ""width:200px""alt=""img"">
                                </div>
                            </div>","-98","","0","images/D94.png","","","","[""Hard"",""Soft""]"
"","","","","","html-button-response","146","658593","0.0-140.0","5xwmolkly4","1202","You have completed the second block of trials out of six. Please click 'Continue' when you are ready proceed.","0","","","","","","",""
"","","","","","html-button-response","147","660526","0.0-141.0","5xwmolkly4","1932","In the following trials, you will be asked to rate textures on the scale <b>Non-Random</b> versus <b>Random</b>. Please click 'Continue' when you are ready proceed.","0","","","","","","",""
"","","","","","html-slider-response","148","674195","0.0-142.0","5xwmolkly4","NaN","<div style=""width:500px;"">
                                <p style=""font-size:50px; font-weight:bold;""
                                ></p>
                                <div style=""width:240px; margin: auto;"">
                                    <img src=""images/D83.png"" style= ""width:200px""alt=""img"">
                                </div>
                            </div>","-39","","0","images/D83.png","","","","[""Non-random"",""Random""]"
"","","","","","html-slider-response","149","696454","0.0-143.0","5xwmolkly4","NaN","<div style=""width:500px;"">
                                <p style=""font-size:50px; font-weight:bold;""
                                ></p>
                                <div style=""width:240px; margin: auto;"">
                                    <img src=""images/D3.png"" style= ""width:200px""alt=""img"">
                                </div>
                            </div>","-19","","0","images/D3.png","","","","[""Non-random"",""Random""]"
"","","","","","html-slider-response","150","701488","0.0-144.0","5xwmolkly4","NaN","<div style=""width:500px;"">
                                <p style=""font-size:50px; font-weight:bold;""
                                ></p>
                                <div style=""width:240px; margin: auto;"">
                                    <img src=""images/D48.png"" style= ""width:200px""alt=""img"">
                                </div>
                            </div>","-89","","0","images/D48.png","","","","[""Non-random"",""Random""]"
"","","","","","html-slider-response","151","704106","0.0-145.0","5xwmolkly4","NaN","<div style=""width:500px;"">
                                <p style=""font-size:50px; font-weight:bold;""
                                ></p>
                                <div style=""width:240px; margin: auto;"">
                                    <img src=""images/D35.png"" style= ""width:200px""alt=""img"">
                                </div>
                            </div>","110","","0","images/D35.png","","","","[""Non-random"",""Random""]"
"","","","","","html-slider-response","152","706253","0.0-146.0","5xwmolkly4","NaN","<div style=""width:500px;"">
                                <p style=""font-size:50px; font-weight:bold;""
                                ></p>
                                <div style=""width:240px; margin: auto;"">
                                    <img src=""images/D52.png"" style= ""width:200px""alt=""img"">
                                </div>
                            </div>","131","","0","images/D52.png","","","","[""Non-random"",""Random""]"
"","","","","","html-slider-response","153","715070","0.0-147.0","5xwmolkly4","NaN","<div style=""width:500px;"">
                                <p style=""font-size:50px; font-weight:bold;""
                                ></p>
                                <div style=""width:240px; margin: auto;"">
                                    <img src=""images/D94.png"" style= ""width:200px""alt=""img"">
                                </div>
                            </div>","80","","0","images/D94.png","","","","[""Non-random"",""Random""]"
"","","","","","html-slider-response","154","720053","0.0-148.0","5xwmolkly4","NaN","<div style=""width:500px;"">
                                <p style=""font-size:50px; font-weight:bold;""
                                ></p>
                                <div style=""width:240px; margin: auto;"">
                                    <img src=""images/D92.png"" style= ""width:200px""alt=""img"">
                                </div>
                            </div>","142","","0","images/D92.png","","","","[""Non-random"",""Random""]"
"","","","","","html-slider-response","155","722853","0.0-149.0","5xwmolkly4","NaN","<div style=""width:500px;"">
                                <p style=""font-size:50px; font-weight:bold;""
                                ></p>
                                <div style=""width:240px; margin: auto;"">
                                    <img src=""images/D76.png"" style= ""width:200px""alt=""img"">
                                </div>
                            </div>","102","","0","images/D76.png","","","","[""Non-random"",""Random""]"
"","","","","","html-slider-response","156","724674","0.0-150.0","5xwmolkly4","NaN","<div style=""width:500px;"">
                                <p style=""font-size:50px; font-weight:bold;""
                                ></p>
                                <div style=""width:240px; margin: auto;"">
                                    <img src=""images/D66.png"" style= ""width:200px""alt=""img"">
                                </div>
                            </div>","101","","0","images/D66.png","","","","[""Non-random"",""Random""]"
"","","","","","html-slider-response","157","726471","0.0-151.0","5xwmolkly4","NaN","<div style=""width:500px;"">
                                <p style=""font-size:50px; font-weight:bold;""
                                ></p>
                                <div style=""width:240px; margin: auto;"">
                                    <img src=""images/D29.png"" style= ""width:200px""alt=""img"">
                                </div>
                            </div>","90","","0","images/D29.png","","","","[""Non-random"",""Random""]"
"","","","","","html-slider-response","158","728536","0.0-152.0","5xwmolkly4","NaN","<div style=""width:500px;"">
                                <p style=""font-size:50px; font-weight:bold;""
                                ></p>
                                <div style=""width:240px; margin: auto;"">
                                    <img src=""images/D34.png"" style= ""width:200px""alt=""img"">
                                </div>
                            </div>","123","","0","images/D34.png","","","","[""Non-random"",""Random""]"
"","","","","","html-slider-response","159","736171","0.0-153.0","5xwmolkly4","NaN","<div style=""width:500px;"">
                                <p style=""font-size:50px; font-weight:bold;""
                                ></p>
                                <div style=""width:240px; margin: auto;"">
                                    <img src=""images/D20.png"" style= ""width:200px""alt=""img"">
                                </div>
                            </div>","-128","","0","images/D20.png","","","","[""Non-random"",""Random""]"
"","","","","","html-slider-response","160","739737","0.0-154.0","5xwmolkly4","NaN","<div style=""width:500px;"">
                                <p style=""font-size:50px; font-weight:bold;""
                                ></p>
                                <div style=""width:240px; margin: auto;"">
                                    <img src=""images/D104.png"" style= ""width:200px""alt=""img"">
                                </div>
                            </div>","128","","0","images/D104.png","","","","[""Non-random"",""Random""]"
"","","","","","html-slider-response","161","741570","0.0-155.0","5xwmolkly4","NaN","<div style=""width:500px;"">
                                <p style=""font-size:50px; font-weight:bold;""
                                ></p>
                                <div style=""width:240px; margin: auto;"">
                                    <img src=""images/D4.png"" style= ""width:200px""alt=""img"">
                                </div>
                            </div>","129","","0","images/D4.png","","","","[""Non-random"",""Random""]"
"","","","","","html-slider-response","162","762389","0.0-156.0","5xwmolkly4","NaN","<div style=""width:500px;"">
                                <p style=""font-size:50px; font-weight:bold;""
                                ></p>
                                <div style=""width:240px; margin: auto;"">
                                    <img src=""images/D55.png"" style= ""width:200px""alt=""img"">
                                </div>
                            </div>","47","","0","images/D55.png","","","","[""Non-random"",""Random""]"
"","","","","","html-slider-response","163","789070","0.0-157.0","5xwmolkly4","NaN","<div style=""width:500px;"">
                                <p style=""font-size:50px; font-weight:bold;""
                                ></p>
                                <div style=""width:240px; margin: auto;"">
                                    <img src=""images/D9.png"" style= ""width:200px""alt=""img"">
                                </div>
                            </div>","99","","0","images/D9.png","","","","[""Non-random"",""Random""]"
"","","","","","html-slider-response","164","792123","0.0-158.0","5xwmolkly4","NaN","<div style=""width:500px;"">
                                <p style=""font-size:50px; font-weight:bold;""
                                ></p>
                                <div style=""width:240px; margin: auto;"">
                                    <img src=""images/D80.png"" style= ""width:200px""alt=""img"">
                                </div>
                            </div>","105","","0","images/D80.png","","","","[""Non-random"",""Random""]"
"","","","","","html-slider-response","165","794320","0.0-159.0","5xwmolkly4","NaN","<div style=""width:500px;"">
                                <p style=""font-size:50px; font-weight:bold;""
                                ></p>
                                <div style=""width:240px; margin: auto;"">
                                    <img src=""images/D1.png"" style= ""width:200px""alt=""img"">
                                </div>
                            </div>","-90","","0","images/D1.png","","","","[""Non-random"",""Random""]"
"","","","","","html-slider-response","166","796119","0.0-160.0","5xwmolkly4","NaN","<div style=""width:500px;"">
                                <p style=""font-size:50px; font-weight:bold;""
                                ></p>
                                <div style=""width:240px; margin: auto;"">
                                    <img src=""images/D57.png"" style= ""width:200px""alt=""img"">
                                </div>
                            </div>","58","","0","images/D57.png","","","","[""Non-random"",""Random""]"
"","","","","","html-slider-response","167","798702","0.0-161.0","5xwmolkly4","NaN","<div style=""width:500px;"">
                                <p style=""font-size:50px; font-weight:bold;""
                                ></p>
                                <div style=""width:240px; margin: auto;"">
                                    <img src=""images/D103.png"" style= ""width:200px""alt=""img"">
                                </div>
                            </div>","130","","0","images/D103.png","","","","[""Non-random"",""Random""]"
"","","","","","html-slider-response","168","802404","0.0-162.0","5xwmolkly4","NaN","<div style=""width:500px;"">
                                <p style=""font-size:50px; font-weight:bold;""
                                ></p>
                                <div style=""width:240px; margin: auto;"">
                                    <img src=""images/D81.png"" style= ""width:200px""alt=""img"">
                                </div>
                            </div>","149","","0","images/D81.png","","","","[""Non-random"",""Random""]"
"","","","","","html-slider-response","169","805336","0.0-163.0","5xwmolkly4","NaN","<div style=""width:500px;"">
                                <p style=""font-size:50px; font-weight:bold;""
                                ></p>
                                <div style=""width:240px; margin: auto;"">
                                    <img src=""images/D105.png"" style= ""width:200px""alt=""img"">
                                </div>
                            </div>","28","","0","images/D105.png","","","","[""Non-random"",""Random""]"
"","","","","","html-slider-response","170","809886","0.0-164.0","5xwmolkly4","NaN","<div style=""width:500px;"">
                                <p style=""font-size:50px; font-weight:bold;""
                                ></p>
                                <div style=""width:240px; margin: auto;"">
                                    <img src=""images/D68.png"" style= ""width:200px""alt=""img"">
                                </div>
                            </div>","61","","0","images/D68.png","","","","[""Non-random"",""Random""]"
"","","","","","html-slider-response","171","811452","0.0-165.0","5xwmolkly4","NaN","<div style=""width:500px;"">
                                <p style=""font-size:50px; font-weight:bold;""
                                ></p>
                                <div style=""width:240px; margin: auto;"">
                                    <img src=""images/D87.png"" style= ""width:200px""alt=""img"">
                                </div>
                            </div>","81","","0","images/D87.png","","","","[""Non-random"",""Random""]"
"","","","","","html-slider-response","172","817403","0.0-166.0","5xwmolkly4","NaN","<div style=""width:500px;"">
                                <p style=""font-size:50px; font-weight:bold;""
                                ></p>
                                <div style=""width:240px; margin: auto;"">
                                    <img src=""images/D16.png"" style= ""width:200px""alt=""img"">
                                </div>
                            </div>","59","","0","images/D16.png","","","","[""Non-random"",""Random""]"
"","","","","","html-slider-response","173","823181","0.0-167.0","5xwmolkly4","NaN","<div style=""width:500px;"">
                                <p style=""font-size:50px; font-weight:bold;""
                                ></p>
                                <div style=""width:240px; margin: auto;"">
                                    <img src=""images/D101.png"" style= ""width:200px""alt=""img"">
                                </div>
                            </div>","-167","","0","images/D101.png","","","","[""Non-random"",""Random""]"
"","","","","","html-slider-response","174","825902","0.0-168.0","5xwmolkly4","NaN","<div style=""width:500px;"">
                                <p style=""font-size:50px; font-weight:bold;""
                                ></p>
                                <div style=""width:240px; margin: auto;"">
                                    <img src=""images/D8.png"" style= ""width:200px""alt=""img"">
                                </div>
                            </div>","-98","","0","images/D8.png","","","","[""Non-random"",""Random""]"
"","","","","","html-slider-response","175","828470","0.0-169.0","5xwmolkly4","NaN","<div style=""width:500px;"">
                                <p style=""font-size:50px; font-weight:bold;""
                                ></p>
                                <div style=""width:240px; margin: auto;"">
                                    <img src=""images/D11.png"" style= ""width:200px""alt=""img"">
                                </div>
                            </div>","-163","","0","images/D11.png","","","","[""Non-random"",""Random""]"
"","","","","","html-slider-response","176","841536","0.0-170.0","5xwmolkly4","NaN","<div style=""width:500px;"">
                                <p style=""font-size:50px; font-weight:bold;""
                                ></p>
                                <div style=""width:240px; margin: auto;"">
                                    <img src=""images/D53.png"" style= ""width:200px""alt=""img"">
                                </div>
                            </div>","-34","","0","images/D53.png","","","","[""Non-random"",""Random""]"
"","","","","","html-slider-response","177","844389","0.0-171.0","5xwmolkly4","NaN","<div style=""width:500px;"">
                                <p style=""font-size:50px; font-weight:bold;""
                                ></p>
                                <div style=""width:240px; margin: auto;"">
                                    <img src=""images/D6.png"" style= ""width:200px""alt=""img"">
                                </div>
                            </div>","-20","","0","images/D6.png","","","","[""Non-random"",""Random""]"
"","","","","","html-slider-response","178","847284","0.0-172.0","5xwmolkly4","NaN","<div style=""width:500px;"">
                                <p style=""font-size:50px; font-weight:bold;""
                                ></p>
                                <div style=""width:240px; margin: auto;"">
                                    <img src=""images/D102.png"" style= ""width:200px""alt=""img"">
                                </div>
                            </div>","-173","","0","images/D102.png","","","","[""Non-random"",""Random""]"
"","","","","","html-slider-response","179","849621","0.0-173.0","5xwmolkly4","NaN","<div style=""width:500px;"">
                                <p style=""font-size:50px; font-weight:bold;""
                                ></p>
                                <div style=""width:240px; margin: auto;"">
                                    <img src=""images/D22.png"" style= ""width:200px""alt=""img"">
                                </div>
                            </div>","137","","0","images/D22.png","","","","[""Non-random"",""Random""]"
"","","","","","html-slider-response","180","853071","0.0-174.0","5xwmolkly4","NaN","<div style=""width:500px;"">
                                <p style=""font-size:50px; font-weight:bold;""
                                ></p>
                                <div style=""width:240px; margin: auto;"">
                                    <img src=""images/D17.png"" style= ""width:200px""alt=""img"">
                                </div>
                            </div>","22","","0","images/D17.png","","","","[""Non-random"",""Random""]"
"","","","","","html-slider-response","181","863502","0.0-175.0","5xwmolkly4","NaN","<div style=""width:500px;"">
                                <p style=""font-size:50px; font-weight:bold;""
                                ></p>
                                <div style=""width:240px; margin: auto;"">
                                    <img src=""images/D78.png"" style= ""width:200px""alt=""img"">
                                </div>
                            </div>","120","","0","images/D78.png","","","","[""Non-random"",""Random""]"
"","","","","","html-slider-response","182","873520","0.0-176.0","5xwmolkly4","NaN","<div style=""width:500px;"">
                                <p style=""font-size:50px; font-weight:bold;""
                                ></p>
                                <div style=""width:240px; margin: auto;"">
                                    <img src=""images/D84.png"" style= ""width:200px""alt=""img"">
                                </div>
                            </div>","127","","0","images/D84.png","","","","[""Non-random"",""Random""]"
"","","","","","html-slider-response","183","875468","0.0-177.0","5xwmolkly4","NaN","<div style=""width:500px;"">
                                <p style=""font-size:50px; font-weight:bold;""
                                ></p>
                                <div style=""width:240px; margin: auto;"">
                                    <img src=""images/D18.png"" style= ""width:200px""alt=""img"">
                                </div>
                            </div>","126","","0","images/D18.png","","","","[""Non-random"",""Random""]"
"","","","","","html-slider-response","184","881568","0.0-178.0","5xwmolkly4","NaN","<div style=""width:500px;"">
                                <p style=""font-size:50px; font-weight:bold;""
                                ></p>
                                <div style=""width:240px; margin: auto;"">
                                    <img src=""images/D46.png"" style= ""width:200px""alt=""img"">
                                </div>
                            </div>","-82","","0","images/D46.png","","","","[""Non-random"",""Random""]"
"","","","","","html-slider-response","185","884403","0.0-179.0","5xwmolkly4","NaN","<div style=""width:500px;"">
                                <p style=""font-size:50px; font-weight:bold;""
                                ></p>
                                <div style=""width:240px; margin: auto;"">
                                    <img src=""images/D77.png"" style= ""width:200px""alt=""img"">
                                </div>
                            </div>","54","","0","images/D77.png","","","","[""Non-random"",""Random""]"
"","","","","","html-slider-response","186","885804","0.0-180.0","5xwmolkly4","NaN","<div style=""width:500px;"">
                                <p style=""font-size:50px; font-weight:bold;""
                                ></p>
                                <div style=""width:240px; margin: auto;"">
                                    <img src=""images/D24.png"" style= ""width:200px""alt=""img"">
                                </div>
                            </div>","49","","0","images/D24.png","","","","[""Non-random"",""Random""]"
"","","","","","html-slider-response","187","888517","0.0-181.0","5xwmolkly4","NaN","<div style=""width:500px;"">
                                <p style=""font-size:50px; font-weight:bold;""
                                ></p>
                                <div style=""width:240px; margin: auto;"">
                                    <img src=""images/D65.png"" style= ""width:200px""alt=""img"">
                                </div>
                            </div>","-82","","0","images/D65.png","","","","[""Non-random"",""Random""]"
"","","","","","html-slider-response","188","891418","0.0-182.0","5xwmolkly4","NaN","<div style=""width:500px;"">
                                <p style=""font-size:50px; font-weight:bold;""
                                ></p>
                                <div style=""width:240px; margin: auto;"">
