"success","timeout","failed_images","failed_audio","failed_video","trial_type","trial_index","time_elapsed","internal_node_id","subject_id","rt","stimulus","response","question_order","slider_start","image_path","practiceTrial","practiceTrialNum","correct","slider_labels"
"true","false","[]","[]","[]","preload","0","427","0.0-0.0","6kr4lvdfr1","","","","","","","","","",""
"","","","","","html-button-response","1","3241","0.0-1.0","6kr4lvdfr1","2812","<div style='text-align:center; font-size:20px; line-height:25px; width: 1200px;'>
                Welcome to our experiment! <br>
                <br>At the bottom of this screen, you will see a button that says 'Begin Experiment.
                <br>Please only click that button when you are ready to complete the 25 minute experiment in one sitting. <br>
                <br> Once you click that button, it will not be possible to restart the experiment. <br><br>","0","","","","","","",""
"true","","","","","fullscreen","2","5899","0.0-2.0","6kr4lvdfr1","1647","","","","","","","","",""
"","","","","","survey-multi-select","3","10520","0.0-3.0","6kr4lvdfr1","4616","","{""Consent"":[""<strong>I consent</strong>""]}","[0]","","","","","",""
"","","","","","html-button-response","4","13401","0.0-4.0","6kr4lvdfr1","2880","Welcome! <p> This experiment involves two parts: demographic information, followed by the experimental task.<p> It will take about 25 minutes to complete both parts.","0","","","","","","",""
"","","","","","survey-text","5","20194","0.0-5.0","6kr4lvdfr1","6787","","{""Age"":""20"",""Gender"":""Male"",""Race/ethnicity"":""asian""}","","","","","","",""
"","","","","","html-slider-response","6","32090","0.0-6.0","6kr4lvdfr1","11892","
                <div style='text-align:center; height: auto; margin-left=-100px; margin-bottom: -20px; font-size:20px; line-height:5px; width: 1200px;'>
                    <br>During this experiment, you will see a series of textures, one at a time, like the ones below: 
                </div>
                    <br>
                    <br>
                    <img src=""anchoring_visual_textures.png"" alt=""img"" style=""max-width:1200px; margin-left: -10px;"">
                </div>
                <div style=""clear: both;""></div>
                </div>
                    <div style='text-align:center; margin-left=-100px; font-size:20px; line-height:20px; width: 1200px; margin-top: -50px;'>
                    
                    <br> For each texture, you will be asked to rate where you think it falls on each of the response scales with the following endpoints:
                    </div>
                            <div style=""text-align: center; width: 1400px; "">
                                <p style=""font-size:20px; line-height:5px; ""><b>Stripey</b> versus <b>Blobby</b></p>
                                <p style=""font-size:20px; line-height:5px; ""><b>Rectangular</b> versus <b>Rounded</b></p>
                                <p style=""font-size:20px;line-height:5px;""><b>Fine</b> versus <b>Coarse</b></p>
                                <p style=""font-size:20px;line-height:5px; ""><b>Smooth</b> versus <b>Rough</b></p>
                                <p style=""font-size:20px;line-height:5px; ""><b>Non-Random</b> versus <b>Random</b></p>
                                <p style=""font-size:20px;line-height:5px;""><b>Soft</b> versus <b>Hard</b></p>
                            </div>
                            <div style='text-align:center; font-size:20px; line-height:20px; width: 1400px;'>
                    
                    Each trial will include one texture and one response scale. You will be asked to make your rating by sliding the cursor along a slider response scale like the one below.
                    <br><br> Before beginning, please look at the textures and scales. For each scale, think about the texture you associate most with the left endpoint. When you see that texture for that response scale, please click near the left of the scale.
                    <br><br> Now, please think about the texture you associate most with the right endpoint of each scale. When you see that texture for that response scale, please click near the right of the scale. 
                    <br><br> If you think a texture is not strongly associated with either endpoint of the scale, please click near the midpoint of the scale. Please use the full range of the scale. 
                    <br><br> You will be asked to rate each texture for a given scale before moving on to the next scale.
                    <br><br> Please press the 'Continue' button for instructions on how to use the slider.                     <br><br>
                ","null","","0","visual_textures_anchoring.png","true","","",""
"","","","","","html-button-response","7","34885","0.0-7.0","6kr4lvdfr1","2793","<div style=""width:1200px; margin-top:-150px;""><p style=""text-align:center; font-size:24px;"">To move the slider, click and drag your cursor to the location of the scale where you would like to make your rating and then let go. <br><br> When you let go of the slider, your response will be recorded and the next trial will begin. <br><br><br>
                We are interested in your initial impressions of each texture and scale, so please go with your first intuition. <br><br>
                Before you begin the experiment, there will be four training trials for you to practice using the scale. <br><br><br><br></div>
                <div style=""width:1200px;""><p style=""text-align:center; font-size:20px;"">When you are ready to start the training trials, please click ""Continue"".</p></div>","0","","","","","","",""
"","","","","","html-slider-response","8","37636","0.0-8.0-0.0","6kr4lvdfr1","NaN","<div style=""width:500px;"">
                                <p style=""font-size:25px;"">Please move the slider all the way to the <br> right endpoint of the scale</p>

                                </div>
                            </div>","200","","0","","true","0","true",""
"","","","","","html-button-response","9","39265","0.0-8.0-1.0","6kr4lvdfr1","1112","<p align='center'><b>Good job!</b> Click on 'Continue' to proceed.</p>","0","","","","","","",""
"","","","","","html-slider-response","10","41153","0.0-9.0-0.0","6kr4lvdfr1","NaN","<div style=""width:500px;"">
                                <p style=""font-size:25px;"">Please move the slider all the way to the <br> left endpoint of the scale</p>

                                </div>
                            </div>","-200","","0","","true","1","true",""
"","","","","","html-button-response","11","42445","0.0-9.0-1.0","6kr4lvdfr1","790","<p align='center'><b>Good job!</b> Click on 'Continue' to proceed.</p>","0","","","","","","",""
"","","","","","html-slider-response","12","47310","0.0-10.0-0.0","6kr4lvdfr1","NaN","<div style=""width:500px;"">
                                <p style=""font-size:25px;"">Please move the slider halfway between the center and right endpoint of the scale</p>

                                </div>
                            </div>","109","","0","","true","2","true",""
"","","","","","html-button-response","13","48785","0.0-10.0-1.0","6kr4lvdfr1","968","<p align='center'><b>Good job!</b> Click on 'Continue' to proceed.</p>","0","","","","","","",""
"","","","","","html-slider-response","14","50796","0.0-11.0-0.0","6kr4lvdfr1","NaN","<div style=""width:500px;"">
                                <p style=""font-size:25px;"">Please move the slider halfway between the center and left endpoint of the scale</p>

                                </div>
                            </div>","-106","","0","","true","3","true",""
"","","","","","html-button-response","15","52171","0.0-11.0-1.0","6kr4lvdfr1","873","<p align='center'><b>Good job!</b> Click on 'Continue' to proceed.</p>","0","","","","","","",""
"","","","","","html-button-response","16","53543","0.0-12.0","6kr4lvdfr1","1371","<div style=""width:800px; margin-top:-300px;""><p style=""text-align:center; font-size:22px; line-height:25px;""""> Great job! You've completed the practice trials.</div>
                     <div style=""width:800px; margin-top:-20px;""><p style=""text-align:center""><br><br> In the following trials, you will be asked to rate textures on each scale one-by-one. <br> You will be given opportunities to take breaks when you have completed each block of trials. There are six total blocks of trials. <br><br> Please click continue to begin the main task.<br><br><br> </div>","0","","","","","","",""
"","","","","","html-button-response","17","115433","0.0-13.0","6kr4lvdfr1","61888","In the following trials, you will be asked to rate textures on the scale <b>Stripey</b> versus <b>Blobby</b>. Please click 'Continue' when you are ready proceed.","0","","","","","","",""
"","","","","","html-slider-response","18","122297","0.0-14.0","6kr4lvdfr1","NaN","<div style=""width:500px;"">
                                <p style=""font-size:50px; font-weight:bold;""
                                ></p>
                                <div style=""width:240px; margin: auto;"">
                                    <img src=""images/D53.png"" style= ""width:200px""alt=""img"">
                                </div>
                            </div>","-45","","0","images/D53.png","","","","[""Stripey"",""Blobby""]"
"","","","","","html-slider-response","19","124335","0.0-15.0","6kr4lvdfr1","NaN","<div style=""width:500px;"">
                                <p style=""font-size:50px; font-weight:bold;""
                                ></p>
                                <div style=""width:240px; margin: auto;"">
                                    <img src=""images/D51.png"" style= ""width:200px""alt=""img"">
                                </div>
                            </div>","-200","","0","images/D51.png","","","","[""Stripey"",""Blobby""]"
"","","","","","html-slider-response","20","126749","0.0-16.0","6kr4lvdfr1","NaN","<div style=""width:500px;"">
                                <p style=""font-size:50px; font-weight:bold;""
                                ></p>
                                <div style=""width:240px; margin: auto;"">
                                    <img src=""images/D103.png"" style= ""width:200px""alt=""img"">
                                </div>
                            </div>","-102","","0","images/D103.png","","","","[""Stripey"",""Blobby""]"
"","","","","","html-slider-response","21","128469","0.0-17.0","6kr4lvdfr1","NaN","<div style=""width:500px;"">
                                <p style=""font-size:50px; font-weight:bold;""
                                ></p>
                                <div style=""width:240px; margin: auto;"">
                                    <img src=""images/D84.png"" style= ""width:200px""alt=""img"">
                                </div>
                            </div>","86","","0","images/D84.png","","","","[""Stripey"",""Blobby""]"
"","","","","","html-slider-response","22","131449","0.0-18.0","6kr4lvdfr1","NaN","<div style=""width:500px;"">
                                <p style=""font-size:50px; font-weight:bold;""
                                ></p>
                                <div style=""width:240px; margin: auto;"">
                                    <img src=""images/D95.png"" style= ""width:200px""alt=""img"">
                                </div>
                            </div>","99","","0","images/D95.png","","","","[""Stripey"",""Blobby""]"
"","","","","","html-slider-response","23","132992","0.0-19.0","6kr4lvdfr1","NaN","<div style=""width:500px;"">
                                <p style=""font-size:50px; font-weight:bold;""
                                ></p>
                                <div style=""width:240px; margin: auto;"">
                                    <img src=""images/D16.png"" style= ""width:200px""alt=""img"">
                                </div>
                            </div>","-129","","0","images/D16.png","","","","[""Stripey"",""Blobby""]"
"","","","","","html-slider-response","24","134804","0.0-20.0","6kr4lvdfr1","NaN","<div style=""width:500px;"">
                                <p style=""font-size:50px; font-weight:bold;""
                                ></p>
                                <div style=""width:240px; margin: auto;"">
                                    <img src=""images/D66.png"" style= ""width:200px""alt=""img"">
                                </div>
                            </div>","139","","0","images/D66.png","","","","[""Stripey"",""Blobby""]"
"","","","","","html-slider-response","25","136474","0.0-21.0","6kr4lvdfr1","NaN","<div style=""width:500px;"">
                                <p style=""font-size:50px; font-weight:bold;""
                                ></p>
                                <div style=""width:240px; margin: auto;"">
                                    <img src=""images/D24.png"" style= ""width:200px""alt=""img"">
                                </div>
                            </div>","200","","0","images/D24.png","","","","[""Stripey"",""Blobby""]"
"","","","","","html-slider-response","26","138210","0.0-22.0","6kr4lvdfr1","NaN","<div style=""width:500px;"">
                                <p style=""font-size:50px; font-weight:bold;""
                                ></p>
                                <div style=""width:240px; margin: auto;"">
                                    <img src=""images/D17.png"" style= ""width:200px""alt=""img"">
                                </div>
                            </div>","134","","0","images/D17.png","","","","[""Stripey"",""Blobby""]"
"","","","","","html-slider-response","27","140456","0.0-23.0","6kr4lvdfr1","NaN","<div style=""width:500px;"">
                                <p style=""font-size:50px; font-weight:bold;""
                                ></p>
                                <div style=""width:240px; margin: auto;"">
                                    <img src=""images/D87.png"" style= ""width:200px""alt=""img"">
                                </div>
                            </div>","38","","0","images/D87.png","","","","[""Stripey"",""Blobby""]"
"","","","","","html-slider-response","28","142575","0.0-24.0","6kr4lvdfr1","NaN","<div style=""width:500px;"">
                                <p style=""font-size:50px; font-weight:bold;""
                                ></p>
                                <div style=""width:240px; margin: auto;"">
                                    <img src=""images/D94.png"" style= ""width:200px""alt=""img"">
                                </div>
                            </div>","-79","","0","images/D94.png","","","","[""Stripey"",""Blobby""]"
"","","","","","html-slider-response","29","144109","0.0-25.0","6kr4lvdfr1","NaN","<div style=""width:500px;"">
                                <p style=""font-size:50px; font-weight:bold;""
                                ></p>
                                <div style=""width:240px; margin: auto;"">
                                    <img src=""images/D82.png"" style= ""width:200px""alt=""img"">
                                </div>
                            </div>","-75","","0","images/D82.png","","","","[""Stripey"",""Blobby""]"
"","","","","","html-slider-response","30","145598","0.0-26.0","6kr4lvdfr1","NaN","<div style=""width:500px;"">
                                <p style=""font-size:50px; font-weight:bold;""
                                ></p>
                                <div style=""width:240px; margin: auto;"">
                                    <img src=""images/D11.png"" style= ""width:200px""alt=""img"">
                                </div>
                            </div>","-113","","0","images/D11.png","","","","[""Stripey"",""Blobby""]"
"","","","","","html-slider-response","31","147074","0.0-27.0","6kr4lvdfr1","NaN","<div style=""width:500px;"">
                                <p style=""font-size:50px; font-weight:bold;""
                                ></p>
                                <div style=""width:240px; margin: auto;"">
                                    <img src=""images/D21.png"" style= ""width:200px""alt=""img"">
                                </div>
                            </div>","-94","","0","images/D21.png","","","","[""Stripey"",""Blobby""]"
"","","","","","html-slider-response","32","148721","0.0-28.0","6kr4lvdfr1","NaN","<div style=""width:500px;"">
                                <p style=""font-size:50px; font-weight:bold;""
                                ></p>
                                <div style=""width:240px; margin: auto;"">
                                    <img src=""images/D3.png"" style= ""width:200px""alt=""img"">
                                </div>
                            </div>","77","","0","images/D3.png","","","","[""Stripey"",""Blobby""]"
"","","","","","html-slider-response","33","150197","0.0-29.0","6kr4lvdfr1","NaN","<div style=""width:500px;"">
                                <p style=""font-size:50px; font-weight:bold;""
                                ></p>
                                <div style=""width:240px; margin: auto;"">
                                    <img src=""images/D101.png"" style= ""width:200px""alt=""img"">
                                </div>
                            </div>","104","","0","images/D101.png","","","","[""Stripey"",""Blobby""]"
"","","","","","html-slider-response","34","151684","0.0-30.0","6kr4lvdfr1","NaN","<div style=""width:500px;"">
                                <p style=""font-size:50px; font-weight:bold;""
                                ></p>
                                <div style=""width:240px; margin: auto;"">
                                    <img src=""images/D57.png"" style= ""width:200px""alt=""img"">
                                </div>
                            </div>","122","","0","images/D57.png","","","","[""Stripey"",""Blobby""]"
"","","","","","html-slider-response","35","153235","0.0-31.0","6kr4lvdfr1","NaN","<div style=""width:500px;"">
                                <p style=""font-size:50px; font-weight:bold;""
                                ></p>
                                <div style=""width:240px; margin: auto;"">
                                    <img src=""images/D56.png"" style= ""width:200px""alt=""img"">
                                </div>
                            </div>","117","","0","images/D56.png","","","","[""Stripey"",""Blobby""]"
"","","","","","html-slider-response","36","154781","0.0-32.0","6kr4lvdfr1","NaN","<div style=""width:500px;"">
                                <p style=""font-size:50px; font-weight:bold;""
                                ></p>
                                <div style=""width:240px; margin: auto;"">
                                    <img src=""images/D25.png"" style= ""width:200px""alt=""img"">
                                </div>
                            </div>","-105","","0","images/D25.png","","","","[""Stripey"",""Blobby""]"
"","","","","","html-slider-response","37","156540","0.0-33.0","6kr4lvdfr1","NaN","<div style=""width:500px;"">
                                <p style=""font-size:50px; font-weight:bold;""
                                ></p>
                                <div style=""width:240px; margin: auto;"">
                                    <img src=""images/D105.png"" style= ""width:200px""alt=""img"">
                                </div>
                            </div>","-132","","0","images/D105.png","","","","[""Stripey"",""Blobby""]"
"","","","","","html-slider-response","38","158531","0.0-34.0","6kr4lvdfr1","NaN","<div style=""width:500px;"">
                                <p style=""font-size:50px; font-weight:bold;""
                                ></p>
                                <div style=""width:240px; margin: auto;"">
                                    <img src=""images/D9.png"" style= ""width:200px""alt=""img"">
                                </div>
                            </div>","106","","0","images/D9.png","","","","[""Stripey"",""Blobby""]"
"","","","","","html-slider-response","39","160241","0.0-35.0","6kr4lvdfr1","NaN","<div style=""width:500px;"">
                                <p style=""font-size:50px; font-weight:bold;""
                                ></p>
                                <div style=""width:240px; margin: auto;"">
                                    <img src=""images/D19.png"" style= ""width:200px""alt=""img"">
                                </div>
                            </div>","116","","0","images/D19.png","","","","[""Stripey"",""Blobby""]"
"","","","","","html-slider-response","40","162686","0.0-36.0","6kr4lvdfr1","NaN","<div style=""width:500px;"">
                                <p style=""font-size:50px; font-weight:bold;""
                                ></p>
                                <div style=""width:240px; margin: auto;"">
                                    <img src=""images/D55.png"" style= ""width:200px""alt=""img"">
                                </div>
                            </div>","120","","0","images/D55.png","","","","[""Stripey"",""Blobby""]"
"","","","","","html-slider-response","41","164933","0.0-37.0","6kr4lvdfr1","NaN","<div style=""width:500px;"">
                                <p style=""font-size:50px; font-weight:bold;""
                                ></p>
                                <div style=""width:240px; margin: auto;"">
                                    <img src=""images/D36.png"" style= ""width:200px""alt=""img"">
                                </div>
                            </div>","147","","0","images/D36.png","","","","[""Stripey"",""Blobby""]"
"","","","","","html-slider-response","42","166379","0.0-38.0","6kr4lvdfr1","NaN","<div style=""width:500px;"">
                                <p style=""font-size:50px; font-weight:bold;""
                                ></p>
                                <div style=""width:240px; margin: auto;"">
                                    <img src=""images/D8.png"" style= ""width:200px""alt=""img"">
                                </div>
                            </div>","172","","0","images/D8.png","","","","[""Stripey"",""Blobby""]"
"","","","","","html-slider-response","43","167971","0.0-39.0","6kr4lvdfr1","NaN","<div style=""width:500px;"">
                                <p style=""font-size:50px; font-weight:bold;""
                                ></p>
                                <div style=""width:240px; margin: auto;"">
                                    <img src=""images/D37.png"" style= ""width:200px""alt=""img"">
                                </div>
                            </div>","183","","0","images/D37.png","","","","[""Stripey"",""Blobby""]"
"","","","","","html-slider-response","44","169609","0.0-40.0","6kr4lvdfr1","NaN","<div style=""width:500px;"">
                                <p style=""font-size:50px; font-weight:bold;""
                                ></p>
                                <div style=""width:240px; margin: auto;"">
                                    <img src=""images/D76.png"" style= ""width:200px""alt=""img"">
                                </div>
                            </div>","-172","","0","images/D76.png","","","","[""Stripey"",""Blobby""]"
"","","","","","html-slider-response","45","171503","0.0-41.0","6kr4lvdfr1","NaN","<div style=""width:500px;"">
                                <p style=""font-size:50px; font-weight:bold;""
                                ></p>
                                <div style=""width:240px; margin: auto;"">
                                    <img src=""images/D92.png"" style= ""width:200px""alt=""img"">
                                </div>
                            </div>","128","","0","images/D92.png","","","","[""Stripey"",""Blobby""]"
"","","","","","html-slider-response","46","173052","0.0-42.0","6kr4lvdfr1","NaN","<div style=""width:500px;"">
                                <p style=""font-size:50px; font-weight:bold;""
                                ></p>
                                <div style=""width:240px; margin: auto;"">
                                    <img src=""images/D68.png"" style= ""width:200px""alt=""img"">
                                </div>
                            </div>","-95","","0","images/D68.png","","","","[""Stripey"",""Blobby""]"
"","","","","","html-slider-response","47","175149","0.0-43.0","6kr4lvdfr1","NaN","<div style=""width:500px;"">
                                <p style=""font-size:50px; font-weight:bold;""
                                ></p>
                                <div style=""width:240px; margin: auto;"">
                                    <img src=""images/D52.png"" style= ""width:200px""alt=""img"">
                                </div>
                            </div>","-132","","0","images/D52.png","","","","[""Stripey"",""Blobby""]"
"","","","","","html-slider-response","48","176697","0.0-44.0","6kr4lvdfr1","NaN","<div style=""width:500px;"">
                                <p style=""font-size:50px; font-weight:bold;""
                                ></p>
                                <div style=""width:240px; margin: auto;"">
                                    <img src=""images/D79.png"" style= ""width:200px""alt=""img"">
                                </div>
                            </div>","-129","","0","images/D79.png","","","","[""Stripey"",""Blobby""]"
"","","","","","html-slider-response","49","178338","0.0-45.0","6kr4lvdfr1","NaN","<div style=""width:500px;"">
                                <p style=""font-size:50px; font-weight:bold;""
                                ></p>
                                <div style=""width:240px; margin: auto;"">
                                    <img src=""images/D65.png"" style= ""width:200px""alt=""img"">
                                </div>
                            </div>","-113","","0","images/D65.png","","","","[""Stripey"",""Blobby""]"
"","","","","","html-slider-response","50","179844","0.0-46.0","6kr4lvdfr1","NaN","<div style=""width:500px;"">
                                <p style=""font-size:50px; font-weight:bold;""
                                ></p>
                                <div style=""width:240px; margin: auto;"">
                                    <img src=""images/D106.png"" style= ""width:200px""alt=""img"">
                                </div>
                            </div>","-128","","0","images/D106.png","","","","[""Stripey"",""Blobby""]"
"","","","","","html-slider-response","51","181882","0.0-47.0","6kr4lvdfr1","NaN","<div style=""width:500px;"">
                                <p style=""font-size:50px; font-weight:bold;""
                                ></p>
                                <div style=""width:240px; margin: auto;"">
                                    <img src=""images/D32.png"" style= ""width:200px""alt=""img"">
                                </div>
                            </div>","150","","0","images/D32.png","","","","[""Stripey"",""Blobby""]"
"","","","","","html-slider-response","52","183785","0.0-48.0","6kr4lvdfr1","NaN","<div style=""width:500px;"">
                                <p style=""font-size:50px; font-weight:bold;""
                                ></p>
                                <div style=""width:240px; margin: auto;"">
                                    <img src=""images/D35.png"" style= ""width:200px""alt=""img"">
                                </div>
                            </div>","145","","0","images/D35.png","","","","[""Stripey"",""Blobby""]"
"","","","","","html-slider-response","53","185353","0.0-49.0","6kr4lvdfr1","NaN","<div style=""width:500px;"">
                                <p style=""font-size:50px; font-weight:bold;""
                                ></p>
                                <div style=""width:240px; margin: auto;"">
                                    <img src=""images/D104.png"" style= ""width:200px""alt=""img"">
                                </div>
                            </div>","164","","0","images/D104.png","","","","[""Stripey"",""Blobby""]"
"","","","","","html-slider-response","54","187246","0.0-50.0","6kr4lvdfr1","NaN","<div style=""width:500px;"">
                                <p style=""font-size:50px; font-weight:bold;""
                                ></p>
                                <div style=""width:240px; margin: auto;"">
                                    <img src=""images/D81.png"" style= ""width:200px""alt=""img"">
                                </div>
                            </div>","92","","0","images/D81.png","","","","[""Stripey"",""Blobby""]"
"","","","","","html-slider-response","55","189375","0.0-51.0","6kr4lvdfr1","NaN","<div style=""width:500px;"">
                                <p style=""font-size:50px; font-weight:bold;""
                                ></p>
                                <div style=""width:240px; margin: auto;"">
                                    <img src=""images/D14.png"" style= ""width:200px""alt=""img"">
                                </div>
                            </div>","-126","","0","images/D14.png","","","","[""Stripey"",""Blobby""]"
"","","","","","html-slider-response","56","190970","0.0-52.0","6kr4lvdfr1","NaN","<div style=""width:500px;"">
                                <p style=""font-size:50px; font-weight:bold;""
                                ></p>
                                <div style=""width:240px; margin: auto;"">
                                    <img src=""images/D1.png"" style= ""width:200px""alt=""img"">
                                </div>
                            </div>","-120","","0","images/D1.png","","","","[""Stripey"",""Blobby""]"
"","","","","","html-slider-response","57","192449","0.0-53.0","6kr4lvdfr1","NaN","<div style=""width:500px;"">
                                <p style=""font-size:50px; font-weight:bold;""
                                ></p>
                                <div style=""width:240px; margin: auto;"">
                                    <img src=""images/D77.png"" style= ""width:200px""alt=""img"">
                                </div>
                            </div>","170","","0","images/D77.png","","","","[""Stripey"",""Blobby""]"
"","","","","","html-slider-response","58","194646","0.0-54.0","6kr4lvdfr1","NaN","<div style=""width:500px;"">
                                <p style=""font-size:50px; font-weight:bold;""
                                ></p>
                                <div style=""width:240px; margin: auto;"">
                                    <img src=""images/D85.png"" style= ""width:200px""alt=""img"">
                                </div>
                            </div>","-165","","0","images/D85.png","","","","[""Stripey"",""Blobby""]"
"","","","","","html-slider-response","59","196721","0.0-55.0","6kr4lvdfr1","NaN","<div style=""width:500px;"">
                                <p style=""font-size:50px; font-weight:bold;""
                                ></p>
                                <div style=""width:240px; margin: auto;"">
                                    <img src=""images/D102.png"" style= ""width:200px""alt=""img"">
                                </div>
                            </div>","163","","0","images/D102.png","","","","[""Stripey"",""Blobby""]"
"","","","","","html-slider-response","60","198411","0.0-56.0","6kr4lvdfr1","NaN","<div style=""width:500px;"">
                                <p style=""font-size:50px; font-weight:bold;""
                                ></p>
                                <div style=""width:240px; margin: auto;"">
                                    <img src=""images/D75.png"" style= ""width:200px""alt=""img"">
                                </div>
                            </div>","171","","0","images/D75.png","","","","[""Stripey"",""Blobby""]"
"","","","","","html-slider-response","61","200130","0.0-57.0","6kr4lvdfr1","NaN","<div style=""width:500px;"">
                                <p style=""font-size:50px; font-weight:bold;""
                                ></p>
                                <div style=""width:240px; margin: auto;"">
                                    <img src=""images/D47.png"" style= ""width:200px""alt=""img"">
                                </div>
                            </div>","-138","","0","images/D47.png","","","","[""Stripey"",""Blobby""]"
"","","","","","html-slider-response","62","201655","0.0-58.0","6kr4lvdfr1","NaN","<div style=""width:500px;"">
                                <p style=""font-size:50px; font-weight:bold;""
                                ></p>
                                <div style=""width:240px; margin: auto;"">
                                    <img src=""images/D96.png"" style= ""width:200px""alt=""img"">
                                </div>
                            </div>","-111","","0","images/D96.png","","","","[""Stripey"",""Blobby""]"
"","","","","","html-slider-response","63","203036","0.0-59.0","6kr4lvdfr1","NaN","<div style=""width:500px;"">
                                <p style=""font-size:50px; font-weight:bold;""
                                ></p>
                                <div style=""width:240px; margin: auto;"">
                                    <img src=""images/D48.png"" style= ""width:200px""alt=""img"">
                                </div>
                            </div>","174","","0","images/D48.png","","","","[""Stripey"",""Blobby""]"
"","","","","","html-slider-response","64","204697","0.0-60.0","6kr4lvdfr1","NaN","<div style=""width:500px;"">
                                <p style=""font-size:50px; font-weight:bold;""
                                ></p>
                                <div style=""width:240px; margin: auto;"">
                                    <img src=""images/D64.png"" style= ""width:200px""alt=""img"">
                                </div>
                            </div>","-96","","0","images/D64.png","","","","[""Stripey"",""Blobby""]"
"","","","","","html-slider-response","65","206243","0.0-61.0","6kr4lvdfr1","NaN","<div style=""width:500px;"">
                                <p style=""font-size:50px; font-weight:bold;""
                                ></p>
                                <div style=""width:240px; margin: auto;"">
                                    <img src=""images/D78.png"" style= ""width:200px""alt=""img"">
                                </div>
                            </div>","-45","","0","images/D78.png","","","","[""Stripey"",""Blobby""]"
"","","","","","html-slider-response","66","207707","0.0-62.0","6kr4lvdfr1","NaN","<div style=""width:500px;"">
                                <p style=""font-size:50px; font-weight:bold;""
                                ></p>
                                <div style=""width:240px; margin: auto;"">
                                    <img src=""images/D6.png"" style= ""width:200px""alt=""img"">
                                </div>
                            </div>","-83","","0","images/D6.png","","","","[""Stripey"",""Blobby""]"
"","","","","","html-slider-response","67","209361","0.0-63.0","6kr4lvdfr1","NaN","<div style=""width:500px;"">
                                <p style=""font-size:50px; font-weight:bold;""
                                ></p>
                                <div style=""width:240px; margin: auto;"">
                                    <img src=""images/D83.png"" style= ""width:200px""alt=""img"">
                                </div>
                            </div>","-88","","0","images/D83.png","","","","[""Stripey"",""Blobby""]"
"","","","","","html-slider-response","68","211643","0.0-64.0","6kr4lvdfr1","NaN","<div style=""width:500px;"">
                                <p style=""font-size:50px; font-weight:bold;""
                                ></p>
                                <div style=""width:240px; margin: auto;"">
                                    <img src=""images/D22.png"" style= ""width:200px""alt=""img"">
                                </div>
                            </div>","178","","0","images/D22.png","","","","[""Stripey"",""Blobby""]"
"","","","","","html-slider-response","69","213184","0.0-65.0","6kr4lvdfr1","NaN","<div style=""width:500px;"">
                                <p style=""font-size:50px; font-weight:bold;""
                                ></p>
                                <div style=""width:240px; margin: auto;"">
                                    <img src=""images/D80.png"" style= ""width:200px""alt=""img"">
                                </div>
                            </div>","90","","0","images/D80.png","","","","[""Stripey"",""Blobby""]"
"","","","","","html-slider-response","70","214667","0.0-66.0","6kr4lvdfr1","NaN","<div style=""width:500px;"">
                                <p style=""font-size:50px; font-weight:bold;""
                                ></p>
                                <div style=""width:240px; margin: auto;"">
                                    <img src=""images/D49.png"" style= ""width:200px""alt=""img"">
                                </div>
                            </div>","-124","","0","images/D49.png","","","","[""Stripey"",""Blobby""]"
"","","","","","html-slider-response","71","216304","0.0-67.0","6kr4lvdfr1","NaN","<div style=""width:500px;"">
                                <p style=""font-size:50px; font-weight:bold;""
                                ></p>
                                <div style=""width:240px; margin: auto;"">
                                    <img src=""images/D34.png"" style= ""width:200px""alt=""img"">
                                </div>
                            </div>","115","","0","images/D34.png","","","","[""Stripey"",""Blobby""]"
"","","","","","html-slider-response","72","217915","0.0-68.0","6kr4lvdfr1","NaN","<div style=""width:500px;"">
                                <p style=""font-size:50px; font-weight:bold;""
                                ></p>
                                <div style=""width:240px; margin: auto;"">
                                    <img src=""images/D111.png"" style= ""width:200px""alt=""img"">
                                </div>
                            </div>","154","","0","images/D111.png","","","","[""Stripey"",""Blobby""]"
"","","","","","html-slider-response","73","219241","0.0-69.0","6kr4lvdfr1","NaN","<div style=""width:500px;"">
                                <p style=""font-size:50px; font-weight:bold;""
                                ></p>
                                <div style=""width:240px; margin: auto;"">
                                    <img src=""images/D4.png"" style= ""width:200px""alt=""img"">
                                </div>
                            </div>","149","","0","images/D4.png","","","","[""Stripey"",""Blobby""]"
"","","","","","html-slider-response","74","220720","0.0-70.0","6kr4lvdfr1","NaN","<div style=""width:500px;"">
                                <p style=""font-size:50px; font-weight:bold;""
                                ></p>
                                <div style=""width:240px; margin: auto;"">
                                    <img src=""images/D46.png"" style= ""width:200px""alt=""img"">
                                </div>
                            </div>","-96","","0","images/D46.png","","","","[""Stripey"",""Blobby""]"
"","","","","","html-slider-response","75","222143","0.0-71.0","6kr4lvdfr1","NaN","<div style=""width:500px;"">
                                <p style=""font-size:50px; font-weight:bold;""
                                ></p>
                                <div style=""width:240px; margin: auto;"">
                                    <img src=""images/D74.png"" style= ""width:200px""alt=""img"">
                                </div>
                            </div>","187","","0","images/D74.png","","","","[""Stripey"",""Blobby""]"
"","","","","","html-slider-response","76","223658","0.0-72.0","6kr4lvdfr1","NaN","<div style=""width:500px;"">
                                <p style=""font-size:50px; font-weight:bold;""
                                ></p>
                                <div style=""width:240px; margin: auto;"">
                                    <img src=""images/D26.png"" style= ""width:200px""alt=""img"">
                                </div>
                            </div>","-106","","0","images/D26.png","","","","[""Stripey"",""Blobby""]"
"","","","","","html-slider-response","77","224950","0.0-73.0","6kr4lvdfr1","NaN","<div style=""width:500px;"">
                                <p style=""font-size:50px; font-weight:bold;""
                                ></p>
                                <div style=""width:240px; margin: auto;"">
                                    <img src=""images/D18.png"" style= ""width:200px""alt=""img"">
                                </div>
                            </div>","94","","0","images/D18.png","","","","[""Stripey"",""Blobby""]"
"","","","","","html-slider-response","78","226305","0.0-74.0","6kr4lvdfr1","NaN","<div style=""width:500px;"">
                                <p style=""font-size:50px; font-weight:bold;""
                                ></p>
                                <div style=""width:240px; margin: auto;"">
                                    <img src=""images/D29.png"" style= ""width:200px""alt=""img"">
                                </div>
                            </div>","-95","","0","images/D29.png","","","","[""Stripey"",""Blobby""]"
"","","","","","html-slider-response","79","227686","0.0-75.0","6kr4lvdfr1","NaN","<div style=""width:500px;"">
                                <p style=""font-size:50px; font-weight:bold;""
                                ></p>
                                <div style=""width:240px; margin: auto;"">
                                    <img src=""images/D20.png"" style= ""width:200px""alt=""img"">
                                </div>
                            </div>","-51","","0","images/D20.png","","","","[""Stripey"",""Blobby""]"
"","","","","","html-button-response","80","230592","0.0-76.0","6kr4lvdfr1","2404","You have completed the first block of trials out of six. Please click 'Continue' when you are ready proceed.","0","","","","","","",""
"","","","","","html-button-response","81","233233","0.0-77.0","6kr4lvdfr1","2639","In the following trials, you will be asked to rate textures on the scale <b>Smooth</b> versus <b>Rough</b>. Please click 'Continue' when you are ready proceed.","0","","","","","","",""
"","","","","","html-slider-response","82","235255","0.0-78.0","6kr4lvdfr1","NaN","<div style=""width:500px;"">
                                <p style=""font-size:50px; font-weight:bold;""
                                ></p>
                                <div style=""width:240px; margin: auto;"">
                                    <img src=""images/D18.png"" style= ""width:200px""alt=""img"">
                                </div>
                            </div>","200","","0","images/D18.png","","","","[""Smooth"",""Rough""]"
"","","","","","html-slider-response","83","238195","0.0-79.0","6kr4lvdfr1","NaN","<div style=""width:500px;"">
                                <p style=""font-size:50px; font-weight:bold;""
                                ></p>
                                <div style=""width:240px; margin: auto;"">
                                    <img src=""images/D77.png"" style= ""width:200px""alt=""img"">
                                </div>
                            </div>","-97","","0","images/D77.png","","","","[""Smooth"",""Rough""]"
"","","","","","html-slider-response","84","239869","0.0-80.0","6kr4lvdfr1","NaN","<div style=""width:500px;"">
                                <p style=""font-size:50px; font-weight:bold;""
                                ></p>
                                <div style=""width:240px; margin: auto;"">
                                    <img src=""images/D6.png"" style= ""width:200px""alt=""img"">
                                </div>
                            </div>","-83","","0","images/D6.png","","","","[""Smooth"",""Rough""]"
"","","","","","html-slider-response","85","241255","0.0-81.0","6kr4lvdfr1","NaN","<div style=""width:500px;"">
                                <p style=""font-size:50px; font-weight:bold;""
                                ></p>
                                <div style=""width:240px; margin: auto;"">
                                    <img src=""images/D105.png"" style= ""width:200px""alt=""img"">
                                </div>
                            </div>","134","","0","images/D105.png","","","","[""Smooth"",""Rough""]"
"","","","","","html-slider-response","86","243081","0.0-82.0","6kr4lvdfr1","NaN","<div style=""width:500px;"">
                                <p style=""font-size:50px; font-weight:bold;""
                                ></p>
                                <div style=""width:240px; margin: auto;"">
                                    <img src=""images/D29.png"" style= ""width:200px""alt=""img"">
                                </div>
                            </div>","200","","0","images/D29.png","","","","[""Smooth"",""Rough""]"
"","","","","","html-slider-response","87","244906","0.0-83.0","6kr4lvdfr1","NaN","<div style=""width:500px;"">
                                <p style=""font-size:50px; font-weight:bold;""
                                ></p>
                                <div style=""width:240px; margin: auto;"">
                                    <img src=""images/D85.png"" style= ""width:200px""alt=""img"">
                                </div>
                            </div>","48","","0","images/D85.png","","","","[""Smooth"",""Rough""]"
"","","","","","html-slider-response","88","246913","0.0-84.0","6kr4lvdfr1","NaN","<div style=""width:500px;"">
                                <p style=""font-size:50px; font-weight:bold;""
                                ></p>
                                <div style=""width:240px; margin: auto;"">
                                    <img src=""images/D48.png"" style= ""width:200px""alt=""img"">
                                </div>
                            </div>","-53","","0","images/D48.png","","","","[""Smooth"",""Rough""]"
"","","","","","html-slider-response","89","248272","0.0-85.0","6kr4lvdfr1","NaN","<div style=""width:500px;"">
                                <p style=""font-size:50px; font-weight:bold;""
                                ></p>
                                <div style=""width:240px; margin: auto;"">
                                    <img src=""images/D111.png"" style= ""width:200px""alt=""img"">
                                </div>
                            </div>","81","","0","images/D111.png","","","","[""Smooth"",""Rough""]"
"","","","","","html-slider-response","90","249720","0.0-86.0","6kr4lvdfr1","NaN","<div style=""width:500px;"">
                                <p style=""font-size:50px; font-weight:bold;""
                                ></p>
                                <div style=""width:240px; margin: auto;"">
                                    <img src=""images/D36.png"" style= ""width:200px""alt=""img"">
                                </div>
                            </div>","200","","0","images/D36.png","","","","[""Smooth"",""Rough""]"
"","","","","","html-slider-response","91","250978","0.0-87.0","6kr4lvdfr1","NaN","<div style=""width:500px;"">
                                <p style=""font-size:50px; font-weight:bold;""
                                ></p>
                                <div style=""width:240px; margin: auto;"">
                                    <img src=""images/D104.png"" style= ""width:200px""alt=""img"">
                                </div>
                            </div>","190","","0","images/D104.png","","","","[""Smooth"",""Rough""]"
"","","","","","html-slider-response","92","252618","0.0-88.0","6kr4lvdfr1","NaN","<div style=""width:500px;"">
                                <p style=""font-size:50px; font-weight:bold;""
                                ></p>
                                <div style=""width:240px; margin: auto;"">
                                    <img src=""images/D74.png"" style= ""width:200px""alt=""img"">
                                </div>
                            </div>","-71","","0","images/D74.png","","","","[""Smooth"",""Rough""]"
"","","","","","html-slider-response","93","253943","0.0-89.0","6kr4lvdfr1","NaN","<div style=""width:500px;"">
                                <p style=""font-size:50px; font-weight:bold;""
                                ></p>
                                <div style=""width:240px; margin: auto;"">
                                    <img src=""images/D20.png"" style= ""width:200px""alt=""img"">
                                </div>
                            </div>","-47","","0","images/D20.png","","","","[""Smooth"",""Rough""]"
"","","","","","html-slider-response","94","255344","0.0-90.0","6kr4lvdfr1","NaN","<div style=""width:500px;"">
                                <p style=""font-size:50px; font-weight:bold;""
                                ></p>
                                <div style=""width:240px; margin: auto;"">
                                    <img src=""images/D75.png"" style= ""width:200px""alt=""img"">
                                </div>
                            </div>","134","","0","images/D75.png","","","","[""Smooth"",""Rough""]"
"","","","","","html-slider-response","95","256827","0.0-91.0","6kr4lvdfr1","NaN","<div style=""width:500px;"">
                                <p style=""font-size:50px; font-weight:bold;""
                                ></p>
                                <div style=""width:240px; margin: auto;"">
                                    <img src=""images/D94.png"" style= ""width:200px""alt=""img"">
                                </div>
                            </div>","-117","","0","images/D94.png","","","","[""Smooth"",""Rough""]"
"","","","","","html-slider-response","96","258250","0.0-92.0","6kr4lvdfr1","NaN","<div style=""width:500px;"">
                                <p style=""font-size:50px; font-weight:bold;""
                                ></p>
                                <div style=""width:240px; margin: auto;"">
                                    <img src=""images/D78.png"" style= ""width:200px""alt=""img"">
                                </div>
                            </div>","126","","0","images/D78.png","","","","[""Smooth"",""Rough""]"
"","","","","","html-slider-response","97","259498","0.0-93.0","6kr4lvdfr1","NaN","<div style=""width:500px;"">
                                <p style=""font-size:50px; font-weight:bold;""
                                ></p>
                                <div style=""width:240px; margin: auto;"">
                                    <img src=""images/D84.png"" style= ""width:200px""alt=""img"">
                                </div>
                            </div>","138","","0","images/D84.png","","","","[""Smooth"",""Rough""]"
"","","","","","html-slider-response","98","260671","0.0-94.0","6kr4lvdfr1","NaN","<div style=""width:500px;"">
                                <p style=""font-size:50px; font-weight:bold;""
                                ></p>
                                <div style=""width:240px; margin: auto;"">
                                    <img src=""images/D81.png"" style= ""width:200px""alt=""img"">
                                </div>
                            </div>","103","","0","images/D81.png","","","","[""Smooth"",""Rough""]"
"","","","","","html-slider-response","99","261975","0.0-95.0","6kr4lvdfr1","NaN","<div style=""width:500px;"">
                                <p style=""font-size:50px; font-weight:bold;""
                                ></p>
                                <div style=""width:240px; margin: auto;"">
                                    <img src=""images/D9.png"" style= ""width:200px""alt=""img"">
                                </div>
                            </div>","93","","0","images/D9.png","","","","[""Smooth"",""Rough""]"
"","","","","","html-slider-response","100","263119","0.0-96.0","6kr4lvdfr1","NaN","<div style=""width:500px;"">
                                <p style=""font-size:50px; font-weight:bold;""
                                ></p>
                                <div style=""width:240px; margin: auto;"">
                                    <img src=""images/D24.png"" style= ""width:200px""alt=""img"">
                                </div>
                            </div>","87","","0","images/D24.png","","","","[""Smooth"",""Rough""]"
"","","","","","html-slider-response","101","264169","0.0-97.0","6kr4lvdfr1","NaN","<div style=""width:500px;"">
                                <p style=""font-size:50px; font-weight:bold;""
                                ></p>
                                <div style=""width:240px; margin: auto;"">
                                    <img src=""images/D76.png"" style= ""width:200px""alt=""img"">
                                </div>
                            </div>","123","","0","images/D76.png","","","","[""Smooth"",""Rough""]"
"","","","","","html-slider-response","102","265470","0.0-98.0","6kr4lvdfr1","NaN","<div style=""width:500px;"">
                                <p style=""font-size:50px; font-weight:bold;""
                                ></p>
                                <div style=""width:240px; margin: auto;"">
                                    <img src=""images/D65.png"" style= ""width:200px""alt=""img"">
                                </div>
                            </div>","113","","0","images/D65.png","","","","[""Smooth"",""Rough""]"
"","","","","","html-slider-response","103","266626","0.0-99.0","6kr4lvdfr1","NaN","<div style=""width:500px;"">
                                <p style=""font-size:50px; font-weight:bold;""
                                ></p>
                                <div style=""width:240px; margin: auto;"">
                                    <img src=""images/D83.png"" style= ""width:200px""alt=""img"">
                                </div>
                            </div>","-115","","0","images/D83.png","","","","[""Smooth"",""Rough""]"
"","","","","","html-slider-response","104","268041","0.0-100.0","6kr4lvdfr1","NaN","<div style=""width:500px;"">
                                <p style=""font-size:50px; font-weight:bold;""
                                ></p>
                                <div style=""width:240px; margin: auto;"">
                                    <img src=""images/D57.png"" style= ""width:200px""alt=""img"">
                                </div>
                            </div>","-200","","0","images/D57.png","","","","[""Smooth"",""Rough""]"
"","","","","","html-slider-response","105","269652","0.0-101.0","6kr4lvdfr1","NaN","<div style=""width:500px;"">
                                <p style=""font-size:50px; font-weight:bold;""
                                ></p>
                                <div style=""width:240px; margin: auto;"">
                                    <img src=""images/D80.png"" style= ""width:200px""alt=""img"">
                                </div>
                            </div>","200","","0","images/D80.png","","","","[""Smooth"",""Rough""]"
"","","","","","html-slider-response","106","271314","0.0-102.0","6kr4lvdfr1","NaN","<div style=""width:500px;"">
                                <p style=""font-size:50px; font-weight:bold;""
                                ></p>
                                <div style=""width:240px; margin: auto;"">
                                    <img src=""images/D102.png"" style= ""width:200px""alt=""img"">
                                </div>
                            </div>","-87","","0","images/D102.png","","","","[""Smooth"",""Rough""]"
"","","","","","html-slider-response","107","272595","0.0-103.0","6kr4lvdfr1","NaN","<div style=""width:500px;"">
                                <p style=""font-size:50px; font-weight:bold;""
                                ></p>
                                <div style=""width:240px; margin: auto;"">
                                    <img src=""images/D68.png"" style= ""width:200px""alt=""img"">
                                </div>
                            </div>","130","","0","images/D68.png","","","","[""Smooth"",""Rough""]"
"","","","","","html-slider-response","108","274163","0.0-104.0","6kr4lvdfr1","NaN","<div style=""width:500px;"">
                                <p style=""font-size:50px; font-weight:bold;""
                                ></p>
                                <div style=""width:240px; margin: auto;"">
                                    <img src=""images/D79.png"" style= ""width:200px""alt=""img"">
                                </div>
                            </div>","62","","0","images/D79.png","","","","[""Smooth"",""Rough""]"
"","","","","","html-slider-response","109","275469","0.0-105.0","6kr4lvdfr1","NaN","<div style=""width:500px;"">
                                <p style=""font-size:50px; font-weight:bold;""
                                ></p>
                                <div style=""width:240px; margin: auto;"">
                                    <img src=""images/D14.png"" style= ""width:200px""alt=""img"">
                                </div>
                            </div>","106","","0","images/D14.png","","","","[""Smooth"",""Rough""]"
"","","","","","html-slider-response","110","276859","0.0-106.0","6kr4lvdfr1","NaN","<div style=""width:500px;"">
                                <p style=""font-size:50px; font-weight:bold;""
                                ></p>
                                <div style=""width:240px; margin: auto;"">
                                    <img src=""images/D21.png"" style= ""width:200px""alt=""img"">
                                </div>
                            </div>","-183","","0","images/D21.png","","","","[""Smooth"",""Rough""]"
"","","","","","html-slider-response","111","278343","0.0-107.0","6kr4lvdfr1","NaN","<div style=""width:500px;"">
                                <p style=""font-size:50px; font-weight:bold;""
                                ></p>
                                <div style=""width:240px; margin: auto;"">
                                    <img src=""images/D92.png"" style= ""width:200px""alt=""img"">
                                </div>
                            </div>","200","","0","images/D92.png","","","","[""Smooth"",""Rough""]"
"","","","","","html-slider-response","112","279850","0.0-108.0","6kr4lvdfr1","NaN","<div style=""width:500px;"">
                                <p style=""font-size:50px; font-weight:bold;""
                                ></p>
                                <div style=""width:240px; margin: auto;"">
                                    <img src=""images/D35.png"" style= ""width:200px""alt=""img"">
                                </div>
                            </div>","102","","0","images/D35.png","","","","[""Smooth"",""Rough""]"
"","","","","","html-slider-response","113","281238","0.0-109.0","6kr4lvdfr1","NaN","<div style=""width:500px;"">
                                <p style=""font-size:50px; font-weight:bold;""
                                ></p>
                                <div style=""width:240px; margin: auto;"">
                                    <img src=""images/D55.png"" style= ""width:200px""alt=""img"">
                                </div>
                            </div>","113","","0","images/D55.png","","","","[""Smooth"",""Rough""]"
"","","","","","html-slider-response","114","282758","0.0-110.0","6kr4lvdfr1","NaN","<div style=""width:500px;"">
                                <p style=""font-size:50px; font-weight:bold;""
                                ></p>
                                <div style=""width:240px; margin: auto;"">
                                    <img src=""images/D51.png"" style= ""width:200px""alt=""img"">
                                </div>
                            </div>","125","","0","images/D51.png","","","","[""Smooth"",""Rough""]"
"","","","","","html-slider-response","115","284116","0.0-111.0","6kr4lvdfr1","NaN","<div style=""width:500px;"">
                                <p style=""font-size:50px; font-weight:bold;""
                                ></p>
                                <div style=""width:240px; margin: auto;"">
                                    <img src=""images/D3.png"" style= ""width:200px""alt=""img"">
                                </div>
                            </div>","-88","","0","images/D3.png","","","","[""Smooth"",""Rough""]"
"","","","","","html-slider-response","116","285408","0.0-112.0","6kr4lvdfr1","NaN","<div style=""width:500px;"">
                                <p style=""font-size:50px; font-weight:bold;""
                                ></p>
                                <div style=""width:240px; margin: auto;"">
                                    <img src=""images/D106.png"" style= ""width:200px""alt=""img"">
                                </div>
                            </div>","155","","0","images/D106.png","","","","[""Smooth"",""Rough""]"
"","","","","","html-slider-response","117","286788","0.0-113.0","6kr4lvdfr1","NaN","<div style=""width:500px;"">
                                <p style=""font-size:50px; font-weight:bold;""
                                ></p>
                                <div style=""width:240px; margin: auto;"">
                                    <img src=""images/D87.png"" style= ""width:200px""alt=""img"">
                                </div>
                            </div>","110","","0","images/D87.png","","","","[""Smooth"",""Rough""]"
"","","","","","html-slider-response","118","288235","0.0-114.0","6kr4lvdfr1","NaN","<div style=""width:500px;"">
                                <p style=""font-size:50px; font-weight:bold;""
                                ></p>
                                <div style=""width:240px; margin: auto;"">
                                    <img src=""images/D47.png"" style= ""width:200px""alt=""img"">
                                </div>
                            </div>","-122","","0","images/D47.png","","","","[""Smooth"",""Rough""]"
"","","","","","html-slider-response","119","289648","0.0-115.0","6kr4lvdfr1","NaN","<div style=""width:500px;"">
                                <p style=""font-size:50px; font-weight:bold;""
                                ></p>
                                <div style=""width:240px; margin: auto;"">
                                    <img src=""images/D53.png"" style= ""width:200px""alt=""img"">
                                </div>
                            </div>","126","","0","images/D53.png","","","","[""Smooth"",""Rough""]"
"","","","","","html-slider-response","120","290946","0.0-116.0","6kr4lvdfr1","NaN","<div style=""width:500px;"">
                                <p style=""font-size:50px; font-weight:bold;""
                                ></p>
                                <div style=""width:240px; margin: auto;"">
                                    <img src=""images/D8.png"" style= ""width:200px""alt=""img"">
                                </div>
                            </div>","-150","","0","images/D8.png","","","","[""Smooth"",""Rough""]"
"","","","","","html-slider-response","121","292456","0.0-117.0","6kr4lvdfr1","NaN","<div style=""width:500px;"">
                                <p style=""font-size:50px; font-weight:bold;""
                                ></p>
                                <div style=""width:240px; margin: auto;"">
                                    <img src=""images/D49.png"" style= ""width:200px""alt=""img"">
                                </div>
                            </div>","126","","0","images/D49.png","","","","[""Smooth"",""Rough""]"
"","","","","","html-slider-response","122","293806","0.0-118.0","6kr4lvdfr1","NaN","<div style=""width:500px;"">
                                <p style=""font-size:50px; font-weight:bold;""
                                ></p>
                                <div style=""width:240px; margin: auto;"">
                                    <img src=""images/D37.png"" style= ""width:200px""alt=""img"">
                                </div>
                            </div>","184","","0","images/D37.png","","","","[""Smooth"",""Rough""]"
"","","","","","html-slider-response","123","296115","0.0-119.0","6kr4lvdfr1","NaN","<div style=""width:500px;"">
                                <p style=""font-size:50px; font-weight:bold;""
                                ></p>
                                <div style=""width:240px; margin: auto;"">
                                    <img src=""images/D64.png"" style= ""width:200px""alt=""img"">
                                </div>
                            </div>","108","","0","images/D64.png","","","","[""Smooth"",""Rough""]"
"","","","","","html-slider-response","124","297621","0.0-120.0","6kr4lvdfr1","NaN","<div style=""width:500px;"">
                                <p style=""font-size:50px; font-weight:bold;""
                                ></p>
                                <div style=""width:240px; margin: auto;"">
                                    <img src=""images/D82.png"" style= ""width:200px""alt=""img"">
                                </div>
                            </div>","-46","","0","images/D82.png","","","","[""Smooth"",""Rough""]"
"","","","","","html-slider-response","125","298997","0.0-121.0","6kr4lvdfr1","NaN","<div style=""width:500px;"">
                                <p style=""font-size:50px; font-weight:bold;""
                                ></p>
                                <div style=""width:240px; margin: auto;"">
                                    <img src=""images/D56.png"" style= ""width:200px""alt=""img"">
                                </div>
                            </div>","-87","","0","images/D56.png","","","","[""Smooth"",""Rough""]"
"","","","","","html-slider-response","126","300307","0.0-122.0","6kr4lvdfr1","NaN","<div style=""width:500px;"">
                                <p style=""font-size:50px; font-weight:bold;""
                                ></p>
                                <div style=""width:240px; margin: auto;"">
                                    <img src=""images/D11.png"" style= ""width:200px""alt=""img"">
                                </div>
                            </div>","100","","0","images/D11.png","","","","[""Smooth"",""Rough""]"
"","","","","","html-slider-response","127","301664","0.0-123.0","6kr4lvdfr1","NaN","<div style=""width:500px;"">
                                <p style=""font-size:50px; font-weight:bold;""
                                ></p>
                                <div style=""width:240px; margin: auto;"">
                                    <img src=""images/D26.png"" style= ""width:200px""alt=""img"">
                                </div>
                            </div>","110","","0","images/D26.png","","","","[""Smooth"",""Rough""]"
"","","","","","html-slider-response","128","302755","0.0-124.0","6kr4lvdfr1","NaN","<div style=""width:500px;"">
                                <p style=""font-size:50px; font-weight:bold;""
                                ></p>
                                <div style=""width:240px; margin: auto;"">
                                    <img src=""images/D52.png"" style= ""width:200px""alt=""img"">
                                </div>
                            </div>","106","","0","images/D52.png","","","","[""Smooth"",""Rough""]"
"","","","","","html-slider-response","129","304021","0.0-125.0","6kr4lvdfr1","NaN","<div style=""width:500px;"">
                                <p style=""font-size:50px; font-weight:bold;""
                                ></p>
                                <div style=""width:240px; margin: auto;"">
                                    <img src=""images/D95.png"" style= ""width:200px""alt=""img"">
                                </div>
                            </div>","161","","0","images/D95.png","","","","[""Smooth"",""Rough""]"
"","","","","","html-slider-response","130","305521","0.0-126.0","6kr4lvdfr1","NaN","<div style=""width:500px;"">
                                <p style=""font-size:50px; font-weight:bold;""
                                ></p>
                                <div style=""width:240px; margin: auto;"">
                                    <img src=""images/D1.png"" style= ""width:200px""alt=""img"">
                                </div>
                            </div>","-200","","0","images/D1.png","","","","[""Smooth"",""Rough""]"
"","","","","","html-slider-response","131","307197","0.0-127.0","6kr4lvdfr1","NaN","<div style=""width:500px;"">
                                <p style=""font-size:50px; font-weight:bold;""
                                ></p>
                                <div style=""width:240px; margin: auto;"">
                                    <img src=""images/D32.png"" style= ""width:200px""alt=""img"">
                                </div>
                            </div>","96","","0","images/D32.png","","","","[""Smooth"",""Rough""]"
"","","","","","html-slider-response","132","308702","0.0-128.0","6kr4lvdfr1","NaN","<div style=""width:500px;"">
                                <p style=""font-size:50px; font-weight:bold;""
                                ></p>
                                <div style=""width:240px; margin: auto;"">
                                    <img src=""images/D22.png"" style= ""width:200px""alt=""img"">
                                </div>
                            </div>","114","","0","images/D22.png","","","","[""Smooth"",""Rough""]"
"","","","","","html-slider-response","133","309928","0.0-129.0","6kr4lvdfr1","NaN","<div style=""width:500px;"">
                                <p style=""font-size:50px; font-weight:bold;""
                                ></p>
                                <div style=""width:240px; margin: auto;"">
                                    <img src=""images/D34.png"" style= ""width:200px""alt=""img"">
                                </div>
                            </div>","86","","0","images/D34.png","","","","[""Smooth"",""Rough""]"
"","","","","","html-slider-response","134","311119","0.0-130.0","6kr4lvdfr1","NaN","<div style=""width:500px;"">
                                <p style=""font-size:50px; font-weight:bold;""
                                ></p>
                                <div style=""width:240px; margin: auto;"">
                                    <img src=""images/D25.png"" style= ""width:200px""alt=""img"">
                                </div>
                            </div>","-118","","0","images/D25.png","","","","[""Smooth"",""Rough""]"
"","","","","","html-slider-response","135","312166","0.0-131.0","6kr4lvdfr1","NaN","<div style=""width:500px;"">
                                <p style=""font-size:50px; font-weight:bold;""
                                ></p>
                                <div style=""width:240px; margin: auto;"">
                                    <img src=""images/D4.png"" style= ""width:200px""alt=""img"">
                                </div>
                            </div>","106","","0","images/D4.png","","","","[""Smooth"",""Rough""]"
"","","","","","html-slider-response","136","313277","0.0-132.0","6kr4lvdfr1","NaN","<div style=""width:500px;"">
                                <p style=""font-size:50px; font-weight:bold;""
                                ></p>
                                <div style=""width:240px; margin: auto;"">
                                    <img src=""images/D46.png"" style= ""width:200px""alt=""img"">
                                </div>
                            </div>","-84","","0","images/D46.png","","","","[""Smooth"",""Rough""]"
"","","","","","html-slider-response","137","314268","0.0-133.0","6kr4lvdfr1","NaN","<div style=""width:500px;"">
                                <p style=""font-size:50px; font-weight:bold;""
                                ></p>
                                <div style=""width:240px; margin: auto;"">
                                    <img src=""images/D19.png"" style= ""width:200px""alt=""img"">
                                </div>
                            </div>","69","","0","images/D19.png","","","","[""Smooth"",""Rough""]"
"","","","","","html-slider-response","138","315297","0.0-134.0","6kr4lvdfr1","NaN","<div style=""width:500px;"">
                                <p style=""font-size:50px; font-weight:bold;""
                                ></p>
                                <div style=""width:240px; margin: auto;"">
                                    <img src=""images/D103.png"" style= ""width:200px""alt=""img"">
                                </div>
                            </div>","-185","","0","images/D103.png","","","","[""Smooth"",""Rough""]"
"","","","","","html-slider-response","139","316668","0.0-135.0","6kr4lvdfr1","NaN","<div style=""width:500px;"">
                                <p style=""font-size:50px; font-weight:bold;""
                                ></p>
                                <div style=""width:240px; margin: auto;"">
                                    <img src=""images/D96.png"" style= ""width:200px""alt=""img"">
                                </div>
                            </div>","-191","","0","images/D96.png","","","","[""Smooth"",""Rough""]"
"","","","","","html-slider-response","140","318118","0.0-136.0","6kr4lvdfr1","NaN","<div style=""width:500px;"">
                                <p style=""font-size:50px; font-weight:bold;""
                                ></p>
                                <div style=""width:240px; margin: auto;"">
                                    <img src=""images/D17.png"" style= ""width:200px""alt=""img"">
                                </div>
                            </div>","134","","0","images/D17.png","","","","[""Smooth"",""Rough""]"
"","","","","","html-slider-response","141","319194","0.0-137.0","6kr4lvdfr1","NaN","<div style=""width:500px;"">
                                <p style=""font-size:50px; font-weight:bold;""
                                ></p>
                                <div style=""width:240px; margin: auto;"">
                                    <img src=""images/D101.png"" style= ""width:200px""alt=""img"">
                                </div>
                            </div>","-62","","0","images/D101.png","","","","[""Smooth"",""Rough""]"
"","","","","","html-slider-response","142","320246","0.0-138.0","6kr4lvdfr1","NaN","<div style=""width:500px;"">
                                <p style=""font-size:50px; font-weight:bold;""
                                ></p>
                                <div style=""width:240px; margin: auto;"">
                                    <img src=""images/D66.png"" style= ""width:200px""alt=""img"">
                                </div>
                            </div>","172","","0","images/D66.png","","","","[""Smooth"",""Rough""]"
"","","","","","html-slider-response","143","321863","0.0-139.0","6kr4lvdfr1","NaN","<div style=""width:500px;"">
                                <p style=""font-size:50px; font-weight:bold;""
                                ></p>
                                <div style=""width:240px; margin: auto;"">
                                    <img src=""images/D16.png"" style= ""width:200px""alt=""img"">
                                </div>
                            </div>","128","","0","images/D16.png","","","","[""Smooth"",""Rough""]"
"","","","","","html-button-response","144","334411","0.0-140.0","6kr4lvdfr1","12035","You have completed the second block of trials out of six. Please click 'Continue' when you are ready proceed.","0","","","","","","",""
"","","","","","html-button-response","145","339409","0.0-141.0","6kr4lvdfr1","4996","In the following trials, you will be asked to rate textures on the scale <b>Non-Random</b> versus <b>Random</b>. Please click 'Continue' when you are ready proceed.","0","","","","","","",""
"","","","","","html-slider-response","146","341365","0.0-142.0","6kr4lvdfr1","NaN","<div style=""width:500px;"">
                                <p style=""font-size:50px; font-weight:bold;""
                                ></p>
                                <div style=""width:240px; margin: auto;"">
                                    <img src=""images/D53.png"" style= ""width:200px""alt=""img"">
                                </div>
                            </div>","-88","","0","images/D53.png","","","","[""Non-random"",""Random""]"
"","","","","","html-slider-response","147","342844","0.0-143.0","6kr4lvdfr1","NaN","<div style=""width:500px;"">
                                <p style=""font-size:50px; font-weight:bold;""
                                ></p>
                                <div style=""width:240px; margin: auto;"">
                                    <img src=""images/D51.png"" style= ""width:200px""alt=""img"">
                                </div>
                            </div>","198","","0","images/D51.png","","","","[""Non-random"",""Random""]"
"","","","","","html-slider-response","148","344080","0.0-144.0","6kr4lvdfr1","NaN","<div style=""width:500px;"">
                                <p style=""font-size:50px; font-weight:bold;""
                                ></p>
                                <div style=""width:240px; margin: auto;"">
                                    <img src=""images/D103.png"" style= ""width:200px""alt=""img"">
                                </div>
                            </div>","118","","0","images/D103.png","","","","[""Non-random"",""Random""]"
"","","","","","html-slider-response","149","345350","0.0-145.0","6kr4lvdfr1","NaN","<div style=""width:500px;"">
                                <p style=""font-size:50px; font-weight:bold;""
                                ></p>
                                <div style=""width:240px; margin: auto;"">
                                    <img src=""images/D84.png"" style= ""width:200px""alt=""img"">
                                </div>
                            </div>","176","","0","images/D84.png","","","","[""Non-random"",""Random""]"
"","","","","","html-slider-response","150","346508","0.0-146.0","6kr4lvdfr1","NaN","<div style=""width:500px;"">
                                <p style=""font-size:50px; font-weight:bold;""
                                ></p>
                                <div style=""width:240px; margin: auto;"">
                                    <img src=""images/D95.png"" style= ""width:200px""alt=""img"">
                                </div>
                            </div>","-139","","0","images/D95.png","","","","[""Non-random"",""Random""]"
"","","","","","html-slider-response","151","347957","0.0-147.0","6kr4lvdfr1","NaN","<div style=""width:500px;"">
                                <p style=""font-size:50px; font-weight:bold;""
                                ></p>
                                <div style=""width:240px; margin: auto;"">
                                    <img src=""images/D16.png"" style= ""width:200px""alt=""img"">
                                </div>
                            </div>","170","","0","images/D16.png","","","","[""Non-random"",""Random""]"
"","","","","","html-slider-response","152","349080","0.0-148.0","6kr4lvdfr1","NaN","<div style=""width:500px;"">
                                <p style=""font-size:50px; font-weight:bold;""
                                ></p>
                                <div style=""width:240px; margin: auto;"">
                                    <img src=""images/D66.png"" style= ""width:200px""alt=""img"">
                                </div>
                            </div>","110","","0","images/D66.png","","","","[""Non-random"",""Random""]"
"","","","","","html-slider-response","153","350238","0.0-149.0","6kr4lvdfr1","NaN","<div style=""width:500px;"">
                                <p style=""font-size:50px; font-weight:bold;""
                                ></p>
                                <div style=""width:240px; margin: auto;"">
                                    <img src=""images/D24.png"" style= ""width:200px""alt=""img"">
                                </div>
                            </div>","127","","0","images/D24.png","","","","[""Non-random"",""Random""]"
"","","","","","html-slider-response","154","351294","0.0-150.0","6kr4lvdfr1","NaN","<div style=""width:500px;"">
                                <p style=""font-size:50px; font-weight:bold;""
                                ></p>
                                <div style=""width:240px; margin: auto;"">
                                    <img src=""images/D17.png"" style= ""width:200px""alt=""img"">
                                </div>
                            </div>","200","","0","images/D17.png","","","","[""Non-random"",""Random""]"
"","","","","","html-slider-response","155","352396","0.0-151.0","6kr4lvdfr1","NaN","<div style=""width:500px;"">
                                <p style=""font-size:50px; font-weight:bold;""
                                ></p>
                                <div style=""width:240px; margin: auto;"">
                                    <img src=""images/D87.png"" style= ""width:200px""alt=""img"">
                                </div>
                            </div>","133","","0","images/D87.png","","","","[""Non-random"",""Random""]"
"","","","","","html-slider-response","156","353731","0.0-152.0","6kr4lvdfr1","NaN","<div style=""width:500px;"">
                                <p style=""font-size:50px; font-weight:bold;""
                                ></p>
                                <div style=""width:240px; margin: auto;"">
                                    <img src=""images/D94.png"" style= ""width:200px""alt=""img"">
                                </div>
                            </div>","-179","","0","images/D94.png","","","","[""Non-random"",""Random""]"
"","","","","","html-slider-response","157","355156","0.0-153.0","6kr4lvdfr1","NaN","<div style=""width:500px;"">
                                <p style=""font-size:50px; font-weight:bold;""
                                ></p>
                                <div style=""width:240px; margin: auto;"">
                                    <img src=""images/D82.png"" style= ""width:200px""alt=""img"">
                                </div>
                            </div>","146","","0","images/D82.png","","","","[""Non-random"",""Random""]"
"","","","","","html-slider-response","158","356250","0.0-154.0","6kr4lvdfr1","NaN","<div style=""width:500px;"">
                                <p style=""font-size:50px; font-weight:bold;""
                                ></p>
                                <div style=""width:240px; margin: auto;"">
                                    <img src=""images/D11.png"" style= ""width:200px""alt=""img"">
                                </div>
                            </div>","-103","","0","images/D11.png","","","","[""Non-random"",""Random""]"
"","","","","","html-slider-response","159","357609","0.0-155.0","6kr4lvdfr1","NaN","<div style=""width:500px;"">
                                <p style=""font-size:50px; font-weight:bold;""
                                ></p>
                                <div style=""width:240px; margin: auto;"">
                                    <img src=""images/D21.png"" style= ""width:200px""alt=""img"">
                                </div>
                            </div>","200","","0","images/D21.png","","","","[""Non-random"",""Random""]"
"","","","","","html-slider-response","160","358777","0.0-156.0","6kr4lvdfr1","NaN","<div style=""width:500px;"">
                                <p style=""font-size:50px; font-weight:bold;""
                                ></p>
                                <div style=""width:240px; margin: auto;"">
                                    <img src=""images/D3.png"" style= ""width:200px""alt=""img"">
                                </div>
                            </div>","-65","","0","images/D3.png","","","","[""Non-random"",""Random""]"
"","","","","","html-slider-response","161","359776","0.0-157.0","6kr4lvdfr1","NaN","<div style=""width:500px;"">
                                <p style=""font-size:50px; font-weight:bold;""
                                ></p>
                                <div style=""width:240px; margin: auto;"">
                                    <img src=""images/D101.png"" style= ""width:200px""alt=""img"">
                                </div>
                            </div>","-115","","0","images/D101.png","","","","[""Non-random"",""Random""]"
"","","","","","html-slider-response","162","360797","0.0-158.0","6kr4lvdfr1","NaN","<div style=""width:500px;"">
                                <p style=""font-size:50px; font-weight:bold;""
                                ></p>
                                <div style=""width:240px; margin: auto;"">
                                    <img src=""images/D57.png"" style= ""width:200px""alt=""img"">
                                </div>
                            </div>","-82","","0","images/D57.png","","","","[""Non-random"",""Random""]"
"","","","","","html-slider-response","163","362082","0.0-159.0","6kr4lvdfr1","NaN","<div style=""width:500px;"">
                                <p style=""font-size:50px; font-weight:bold;""
                                ></p>
                                <div style=""width:240px; margin: auto;"">
                                    <img src=""images/D56.png"" style= ""width:200px""alt=""img"">
                                </div>
                            </div>","-133","","0","images/D56.png","","","","[""Non-random"",""Random""]"
"","","","","","html-slider-response","164","363135","0.0-160.0","6kr4lvdfr1","NaN","<div style=""width:500px;"">
                                <p style=""font-size:50px; font-weight:bold;""
                                ></p>
                                <div style=""width:240px; margin: auto;"">
                                    <img src=""images/D25.png"" style= ""width:200px""alt=""img"">
                                </div>
                            </div>","-166","","0","images/D25.png","","","","[""Non-random"",""Random""]"
"","","","","","html-slider-response","165","364205","0.0-161.0","6kr4lvdfr1","NaN","<div style=""width:500px;"">
                                <p style=""font-size:50px; font-weight:bold;""
                                ></p>
                                <div style=""width:240px; margin: auto;"">
                                    <img src=""images/D105.png"" style= ""width:200px""alt=""img"">
                                </div>
                            </div>","-70","","0","images/D105.png","","","","[""Non-random"",""Random""]"
"","","","","","html-slider-response","166","365224","0.0-162.0","6kr4lvdfr1","NaN","<div style=""width:500px;"">
                                <p style=""font-size:50px; font-weight:bold;""
                                ></p>
                                <div style=""width:240px; margin: auto;"">
                                    <img src=""images/D9.png"" style= ""width:200px""alt=""img"">
                                </div>
                            </div>","82","","0","images/D9.png","","","","[""Non-random"",""Random""]"
"","","","","","html-slider-response","167","366192","0.0-163.0","6kr4lvdfr1","NaN","<div style=""width:500px;"">
                                <p style=""font-size:50px; font-weight:bold;""
                                ></p>
                                <div style=""width:240px; margin: auto;"">
                                    <img src=""images/D19.png"" style= ""width:200px""alt=""img"">
                                </div>
                            </div>","142","","0","images/D19.png","","","","[""Non-random"",""Random""]"
"","","","","","html-slider-response","168","367243","0.0-164.0","6kr4lvdfr1","NaN","<div style=""width:500px;"">
                                <p style=""font-size:50px; font-weight:bold;""
                                ></p>
                                <div style=""width:240px; margin: auto;"">
                                    <img src=""images/D55.png"" style= ""width:200px""alt=""img"">
                                </div>
                            </div>","150","","0","images/D55.png","","","","[""Non-random"",""Random""]"
"","","","","","html-slider-response","169","368285","0.0-165.0","6kr4lvdfr1","NaN","<div style=""width:500px;"">
                                <p style=""font-size:50px; font-weight:bold;""
                                ></p>
                                <div style=""width:240px; margin: auto;"">
                                    <img src=""images/D36.png"" style= ""width:200px""alt=""img"">
                                </div>
                            </div>","88","","0","images/D36.png","","","","[""Non-random"",""Random""]"
"","","","","","html-slider-response","170","369403","0.0-166.0","6kr4lvdfr1","NaN","<div style=""width:500px;"">
                                <p style=""font-size:50px; font-weight:bold;""
                                ></p>
                                <div style=""width:240px; margin: auto;"">
                                    <img src=""images/D8.png"" style= ""width:200px""alt=""img"">
                                </div>
                            </div>","-98","","0","images/D8.png","","","","[""Non-random"",""Random""]"
"","","","","","html-slider-response","171","370480","0.0-167.0","6kr4lvdfr1","NaN","<div style=""width:500px;"">
                                <p style=""font-size:50px; font-weight:bold;""
                                ></p>
                                <div style=""width:240px; margin: auto;"">
                                    <img src=""images/D37.png"" style= ""width:200px""alt=""img"">
                                </div>
                            </div>","-131","","0","images/D37.png","","","","[""Non-random"",""Random""]"
"","","","","","html-slider-response","172","371523","0.0-168.0","6kr4lvdfr1","NaN","<div style=""width:500px;"">
                                <p style=""font-size:50px; font-weight:bold;""
                                ></p>
                                <div style=""width:240px; margin: auto;"">
                                    <img src=""images/D76.png"" style= ""width:200px""alt=""img"">
                                </div>
                            </div>","-94","","0","images/D76.png","","","","[""Non-random"",""Random""]"
"","","","","","html-slider-response","173","372522","0.0-169.0","6kr4lvdfr1","NaN","<div style=""width:500px;"">
                                <p style=""font-size:50px; font-weight:bold;""
                                ></p>
                                <div style=""width:240px; margin: auto;"">
                                    <img src=""images/D92.png"" style= ""width:200px""alt=""img"">
                                </div>
                            </div>","30","","0","images/D92.png","","","","[""Non-random"",""Random""]"
"","","","","","html-slider-response","174","373385","0.0-170.0","6kr4lvdfr1","NaN","<div style=""width:500px;"">
                                <p style=""font-size:50px; font-weight:bold;""
                                ></p>
                                <div style=""width:240px; margin: auto;"">
                                    <img src=""images/D68.png"" style= ""width:200px""alt=""img"">
                                </div>
                            </div>","-96","","0","images/D68.png","","","","[""Non-random"",""Random""]"
"","","","","","html-slider-response","175","374374","0.0-171.0","6kr4lvdfr1","NaN","<div style=""width:500px;"">
                                <p style=""font-size:50px; font-weight:bold;""
                                ></p>
                                <div style=""width:240px; margin: auto;"">
                                    <img src=""images/D52.png"" style= ""width:200px""alt=""img"">
                                </div>
                            </div>","16","","0","images/D52.png","","","","[""Non-random"",""Random""]"
"","","","","","html-slider-response","176","375233","0.0-172.0","6kr4lvdfr1","NaN","<div style=""width:500px;"">
                                <p style=""font-size:50px; font-weight:bold;""
                                ></p>
                                <div style=""width:240px; margin: auto;"">
                                    <img src=""images/D79.png"" style= ""width:200px""alt=""img"">
                                </div>
                            </div>","-100","","0","images/D79.png","","","","[""Non-random"",""Random""]"
"","","","","","html-slider-response","177","376052","0.0-173.0","6kr4lvdfr1","NaN","<div style=""width:500px;"">
                                <p style=""font-size:50px; font-weight:bold;""
                                ></p>
                                <div style=""width:240px; margin: auto;"">
                                    <img src=""images/D65.png"" style= ""width:200px""alt=""img"">
                                </div>
                            </div>","82","","0","images/D65.png","","","","[""Non-random"",""Random""]"
"","","","","","html-slider-response","178","377302","0.0-174.0","6kr4lvdfr1","NaN","<div style=""width:500px;"">
                                <p style=""font-size:50px; font-weight:bold;""
                                ></p>
                                <div style=""width:240px; margin: auto;"">
                                    <img src=""images/D106.png"" style= ""width:200px""alt=""img"">
                                </div>
                            </div>","-58","","0","images/D106.png","","","","[""Non-random"",""Random""]"
"","","","","","html-slider-response","179","378498","0.0-175.0","6kr4lvdfr1","NaN","<div style=""width:500px;"">
                                <p style=""font-size:50px; font-weight:bold;""
                                ></p>
                                <div style=""width:240px; margin: auto;"">
                                    <img src=""images/D32.png"" style= ""width:200px""alt=""img"">
                                </div>
                            </div>","-105","","0","images/D32.png","","","","[""Non-random"",""Random""]"
"","","","","","html-slider-response","180","379465","0.0-176.0","6kr4lvdfr1","NaN","<div style=""width:500px;"">
                                <p style=""font-size:50px; font-weight:bold;""
                                ></p>
                                <div style=""width:240px; margin: auto;"">
                                    <img src=""images/D35.png"" style= ""width:200px""alt=""img"">
                                </div>
                            </div>","112","","0","images/D35.png","","","","[""Non-random"",""Random""]"
"","","","","","html-slider-response","181","380305","0.0-177.0","6kr4lvdfr1","NaN","<div style=""width:500px;"">
                                <p style=""font-size:50px; font-weight:bold;""
                                ></p>
                                <div style=""width:240px; margin: auto;"">
                                    <img src=""images/D104.png"" style= ""width:200px""alt=""img"">
                                </div>
                            </div>","-102","","0","images/D104.png","","","","[""Non-random"",""Random""]"
"","","","","","html-slider-response","182","381287","0.0-178.0","6kr4lvdfr1","NaN","<div style=""width:500px;"">
                                <p style=""font-size:50px; font-weight:bold;""
                                ></p>
                                <div style=""width:240px; margin: auto;"">
                                    <img src=""images/D81.png"" style= ""width:200px""alt=""img"">
                                </div>
                            </div>","48","","0","images/D81.png","","","","[""Non-random"",""Random""]"
"","","","","","html-slider-response","183","382212","0.0-179.0","6kr4lvdfr1","NaN","<div style=""width:500px;"">
                                <p style=""font-size:50px; font-weight:bold;""
                                ></p>
                                <div style=""width:240px; margin: auto;"">
                                    <img src=""images/D14.png"" style= ""width:200px""alt=""img"">
                                </div>
                            </div>","89","","0","images/D14.png","","","","[""Non-random"",""Random""]"
"","","","","","html-slider-response","184","383404","0.0-180.0","6kr4lvdfr1","NaN","<div style=""width:500px;"">
                                <p style=""font-size:50px; font-weight:bold;""
                                ></p>
                                <div style=""width:240px; margin: auto;"">
                                    <img src=""images/D1.png"" style= ""width:200px""alt=""img"">
                                </div>
                            </div>","-87","","0","images/D1.png","","","","[""Non-random"",""Random""]"
"","","","","","html-slider-response","185","384349","0.0-181.0","6kr4lvdfr1","NaN","<div style=""width:500px;"">
                                <p style=""font-size:50px; font-weight:bold;""
                                ></p>
                                <div style=""width:240px; margin: auto;"">
                                    <img src=""images/D77.png"" style= ""width:200px""alt=""img"">
                                </div>
                            </div>","45","","0","images/D77.png","","","","[""Non-random"",""Random""]"
"","","","","","html-slider-response","186","385158","0.0-182.0","6kr4lvdfr1","NaN","<div style=""width:500px;"">
                                <p style=""font-size:50px; font-weight:bold;""
                                ></p>
                                <div style=""width:240px; margin: auto;"">
                                    <img src=""images/D85.png"" style= ""width:200px""alt=""img"">
                                </div>
                            </div>","-78","","0","images/D85.png","","","","[""Non-random"",""Random""]"
