"success","timeout","failed_images","failed_audio","failed_video","trial_type","trial_index","time_elapsed","internal_node_id","subject_id","rt","stimulus","response","question_order","slider_start","image_path","practiceTrial","practiceTrialNum","correct","slider_labels"
"true","false","[]","[]","[]","preload","0","2146","0.0-0.0","8js4lu9z18","","","","","","","","","",""
"","","","","","html-button-response","1","9635","0.0-1.0","8js4lu9z18","7487","<div style='text-align:center; font-size:20px; line-height:25px; width: 1200px;'>
                Welcome to our experiment! <br>
                <br>At the bottom of this screen, you will see a button that says 'Begin Experiment.
                <br>Please only click that button when you are ready to complete the 25 minute experiment in one sitting. <br>
                <br> Once you click that button, it will not be possible to restart the experiment. <br><br>","0","","","","","","",""
"true","","","","","fullscreen","2","13152","0.0-2.0","8js4lu9z18","2514","","","","","","","","",""
"","","","","","survey-multi-select","3","67402","0.0-3.0","8js4lu9z18","54246","","{""Consent"":[""<strong>I consent</strong>""]}","[0]","","","","","",""
"","","","","","html-button-response","4","69050","0.0-4.0","8js4lu9z18","1644","Welcome! <p> This experiment involves two parts: demographic information, followed by the experimental task.<p> It will take about 25 minutes to complete both parts.","0","","","","","","",""
"","","","","","survey-text","5","79451","0.0-5.0","8js4lu9z18","10397","","{""Age"":""21"",""Gender"":""female"",""Race/ethnicity"":""White""}","","","","","","",""
"","","","","","html-slider-response","6","92667","0.0-6.0","8js4lu9z18","13213","
                <div style='text-align:center; height: auto; margin-left=-100px; margin-bottom: -20px; font-size:20px; line-height:5px; width: 1200px;'>
                    <br>During this experiment, you will see a series of textures, one at a time, like the ones below: 
                </div>
                    <br>
                    <br>
                    <img src=""anchoring_visual_textures.png"" alt=""img"" style=""max-width:1200px; margin-left: -10px;"">
                </div>
                <div style=""clear: both;""></div>
                </div>
                    <div style='text-align:center; margin-left=-100px; font-size:20px; line-height:20px; width: 1200px; margin-top: -50px;'>
                    
                    <br> For each texture, you will be asked to rate where you think it falls on each of the response scales with the following endpoints:
                    </div>
                            <div style=""text-align: center; width: 1400px; "">
                                <p style=""font-size:20px; line-height:5px; ""><b>Stripey</b> versus <b>Blobby</b></p>
                                <p style=""font-size:20px; line-height:5px; ""><b>Rectangular</b> versus <b>Rounded</b></p>
                                <p style=""font-size:20px;line-height:5px;""><b>Fine</b> versus <b>Coarse</b></p>
                                <p style=""font-size:20px;line-height:5px; ""><b>Smooth</b> versus <b>Rough</b></p>
                                <p style=""font-size:20px;line-height:5px; ""><b>Non-Random</b> versus <b>Random</b></p>
                                <p style=""font-size:20px;line-height:5px;""><b>Soft</b> versus <b>Hard</b></p>
                            </div>
                            <div style='text-align:center; font-size:20px; line-height:20px; width: 1400px;'>
                    
                    Each trial will include one texture and one response scale. You will be asked to make your rating by sliding the cursor along a slider response scale like the one below.
                    <br><br> Before beginning, please look at the textures and scales. For each scale, think about the texture you associate most with the left endpoint. When you see that texture for that response scale, please click near the left of the scale.
                    <br><br> Now, please think about the texture you associate most with the right endpoint of each scale. When you see that texture for that response scale, please click near the right of the scale. 
                    <br><br> If you think a texture is not strongly associated with either endpoint of the scale, please click near the midpoint of the scale. Please use the full range of the scale. 
                    <br><br> You will be asked to rate each texture for a given scale before moving on to the next scale.
                    <br><br> Please press the 'Continue' button for instructions on how to use the slider.                     <br><br>
                ","null","","0","visual_textures_anchoring.png","true","","",""
"","","","","","html-button-response","7","103733","0.0-7.0","8js4lu9z18","11064","<div style=""width:1200px; margin-top:-150px;""><p style=""text-align:center; font-size:24px;"">To move the slider, click and drag your cursor to the location of the scale where you would like to make your rating and then let go. <br><br> When you let go of the slider, your response will be recorded and the next trial will begin. <br><br><br>
                We are interested in your initial impressions of each texture and scale, so please go with your first intuition. <br><br>
                Before you begin the experiment, there will be four training trials for you to practice using the scale. <br><br><br><br></div>
                <div style=""width:1200px;""><p style=""text-align:center; font-size:20px;"">When you are ready to start the training trials, please click ""Continue"".</p></div>","0","","","","","","",""
"","","","","","html-slider-response","8","106676","0.0-8.0-0.0","8js4lu9z18","NaN","<div style=""width:500px;"">
                                <p style=""font-size:25px;"">Please move the slider all the way to the <br> right endpoint of the scale</p>

                                </div>
                            </div>","200","","0","","true","0","true",""
"","","","","","html-button-response","9","108301","0.0-8.0-1.0","8js4lu9z18","1120","<p align='center'><b>Good job!</b> Click on 'Continue' to proceed.</p>","0","","","","","","",""
"","","","","","html-slider-response","10","110011","0.0-9.0-0.0","8js4lu9z18","NaN","<div style=""width:500px;"">
                                <p style=""font-size:25px;"">Please move the slider all the way to the <br> left endpoint of the scale</p>

                                </div>
                            </div>","-200","","0","","true","1","true",""
"","","","","","html-button-response","11","111718","0.0-9.0-1.0","8js4lu9z18","1204","<p align='center'><b>Good job!</b> Click on 'Continue' to proceed.</p>","0","","","","","","",""
"","","","","","html-slider-response","12","115395","0.0-10.0-0.0","8js4lu9z18","NaN","<div style=""width:500px;"">
                                <p style=""font-size:25px;"">Please move the slider halfway between the center and right endpoint of the scale</p>

                                </div>
                            </div>","98","","0","","true","2","true",""
"","","","","","html-button-response","13","116649","0.0-10.0-1.0","8js4lu9z18","750","<p align='center'><b>Good job!</b> Click on 'Continue' to proceed.</p>","0","","","","","","",""
"","","","","","html-slider-response","14","119345","0.0-11.0-0.0","8js4lu9z18","NaN","<div style=""width:500px;"">
                                <p style=""font-size:25px;"">Please move the slider halfway between the center and left endpoint of the scale</p>

                                </div>
                            </div>","-109","","0","","true","3","true",""
"","","","","","html-button-response","15","120783","0.0-11.0-1.0","8js4lu9z18","934","<p align='center'><b>Good job!</b> Click on 'Continue' to proceed.</p>","0","","","","","","",""
"","","","","","html-button-response","16","124669","0.0-12.0","8js4lu9z18","3885","<div style=""width:800px; margin-top:-300px;""><p style=""text-align:center; font-size:22px; line-height:25px;""""> Great job! You've completed the practice trials.</div>
                     <div style=""width:800px; margin-top:-20px;""><p style=""text-align:center""><br><br> In the following trials, you will be asked to rate textures on each scale one-by-one. <br> You will be given opportunities to take breaks when you have completed each block of trials. There are six total blocks of trials. <br><br> Please click continue to begin the main task.<br><br><br> </div>","0","","","","","","",""
"","","","","","html-button-response","17","132101","0.0-13.0","8js4lu9z18","7430","In the following trials, you will be asked to rate textures on the scale <b>Soft</b> versus <b>Hard</b>. Please click 'Continue' when you are ready proceed.","0","","","","","","",""
"","","","","","html-slider-response","18","134995","0.0-14.0","8js4lu9z18","NaN","<div style=""width:500px;"">
                                <p style=""font-size:50px; font-weight:bold;""
                                ></p>
                                <div style=""width:240px; margin: auto;"">
                                    <img src=""images/D85.png"" style= ""width:200px""alt=""img"">
                                </div>
                            </div>","81","","0","images/D85.png","","","","[""Hard"",""Soft""]"
"","","","","","html-slider-response","19","137127","0.0-15.0","8js4lu9z18","NaN","<div style=""width:500px;"">
                                <p style=""font-size:50px; font-weight:bold;""
                                ></p>
                                <div style=""width:240px; margin: auto;"">
                                    <img src=""images/D57.png"" style= ""width:200px""alt=""img"">
                                </div>
                            </div>","73","","0","images/D57.png","","","","[""Hard"",""Soft""]"
"","","","","","html-slider-response","20","139978","0.0-16.0","8js4lu9z18","NaN","<div style=""width:500px;"">
                                <p style=""font-size:50px; font-weight:bold;""
                                ></p>
                                <div style=""width:240px; margin: auto;"">
                                    <img src=""images/D104.png"" style= ""width:200px""alt=""img"">
                                </div>
                            </div>","162","","0","images/D104.png","","","","[""Hard"",""Soft""]"
"","","","","","html-slider-response","21","142194","0.0-17.0","8js4lu9z18","NaN","<div style=""width:500px;"">
                                <p style=""font-size:50px; font-weight:bold;""
                                ></p>
                                <div style=""width:240px; margin: auto;"">
                                    <img src=""images/D46.png"" style= ""width:200px""alt=""img"">
                                </div>
                            </div>","30","","0","images/D46.png","","","","[""Hard"",""Soft""]"
"","","","","","html-slider-response","22","146097","0.0-18.0","8js4lu9z18","NaN","<div style=""width:500px;"">
                                <p style=""font-size:50px; font-weight:bold;""
                                ></p>
                                <div style=""width:240px; margin: auto;"">
                                    <img src=""images/D94.png"" style= ""width:200px""alt=""img"">
                                </div>
                            </div>","-140","","0","images/D94.png","","","","[""Hard"",""Soft""]"
"","","","","","html-slider-response","23","149228","0.0-19.0","8js4lu9z18","NaN","<div style=""width:500px;"">
                                <p style=""font-size:50px; font-weight:bold;""
                                ></p>
                                <div style=""width:240px; margin: auto;"">
                                    <img src=""images/D103.png"" style= ""width:200px""alt=""img"">
                                </div>
                            </div>","74","","0","images/D103.png","","","","[""Hard"",""Soft""]"
"","","","","","html-slider-response","24","151594","0.0-20.0","8js4lu9z18","NaN","<div style=""width:500px;"">
                                <p style=""font-size:50px; font-weight:bold;""
                                ></p>
                                <div style=""width:240px; margin: auto;"">
                                    <img src=""images/D19.png"" style= ""width:200px""alt=""img"">
                                </div>
                            </div>","65","","0","images/D19.png","","","","[""Hard"",""Soft""]"
"","","","","","html-slider-response","25","155278","0.0-21.0","8js4lu9z18","NaN","<div style=""width:500px;"">
                                <p style=""font-size:50px; font-weight:bold;""
                                ></p>
                                <div style=""width:240px; margin: auto;"">
                                    <img src=""images/D3.png"" style= ""width:200px""alt=""img"">
                                </div>
                            </div>","22","","0","images/D3.png","","","","[""Hard"",""Soft""]"
"","","","","","html-slider-response","26","157479","0.0-22.0","8js4lu9z18","NaN","<div style=""width:500px;"">
                                <p style=""font-size:50px; font-weight:bold;""
                                ></p>
                                <div style=""width:240px; margin: auto;"">
                                    <img src=""images/D35.png"" style= ""width:200px""alt=""img"">
                                </div>
                            </div>","-38","","0","images/D35.png","","","","[""Hard"",""Soft""]"
"","","","","","html-slider-response","27","162478","0.0-23.0","8js4lu9z18","NaN","<div style=""width:500px;"">
                                <p style=""font-size:50px; font-weight:bold;""
                                ></p>
                                <div style=""width:240px; margin: auto;"">
                                    <img src=""images/D14.png"" style= ""width:200px""alt=""img"">
                                </div>
                            </div>","70","","0","images/D14.png","","","","[""Hard"",""Soft""]"
"","","","","","html-slider-response","28","165044","0.0-24.0","8js4lu9z18","NaN","<div style=""width:500px;"">
                                <p style=""font-size:50px; font-weight:bold;""
                                ></p>
                                <div style=""width:240px; margin: auto;"">
                                    <img src=""images/D37.png"" style= ""width:200px""alt=""img"">
                                </div>
                            </div>","34","","0","images/D37.png","","","","[""Hard"",""Soft""]"
"","","","","","html-slider-response","29","167879","0.0-25.0","8js4lu9z18","NaN","<div style=""width:500px;"">
                                <p style=""font-size:50px; font-weight:bold;""
                                ></p>
                                <div style=""width:240px; margin: auto;"">
                                    <img src=""images/D77.png"" style= ""width:200px""alt=""img"">
                                </div>
                            </div>","76","","0","images/D77.png","","","","[""Hard"",""Soft""]"
"","","","","","html-slider-response","30","170527","0.0-26.0","8js4lu9z18","NaN","<div style=""width:500px;"">
                                <p style=""font-size:50px; font-weight:bold;""
                                ></p>
                                <div style=""width:240px; margin: auto;"">
                                    <img src=""images/D79.png"" style= ""width:200px""alt=""img"">
                                </div>
                            </div>","-31","","0","images/D79.png","","","","[""Hard"",""Soft""]"
"","","","","","html-slider-response","31","172478","0.0-27.0","8js4lu9z18","NaN","<div style=""width:500px;"">
                                <p style=""font-size:50px; font-weight:bold;""
                                ></p>
                                <div style=""width:240px; margin: auto;"">
                                    <img src=""images/D51.png"" style= ""width:200px""alt=""img"">
                                </div>
                            </div>","-39","","0","images/D51.png","","","","[""Hard"",""Soft""]"
"","","","","","html-slider-response","32","174378","0.0-28.0","8js4lu9z18","NaN","<div style=""width:500px;"">
                                <p style=""font-size:50px; font-weight:bold;""
                                ></p>
                                <div style=""width:240px; margin: auto;"">
                                    <img src=""images/D76.png"" style= ""width:200px""alt=""img"">
                                </div>
                            </div>","15","","0","images/D76.png","","","","[""Hard"",""Soft""]"
"","","","","","html-slider-response","33","176647","0.0-29.0","8js4lu9z18","NaN","<div style=""width:500px;"">
                                <p style=""font-size:50px; font-weight:bold;""
                                ></p>
                                <div style=""width:240px; margin: auto;"">
                                    <img src=""images/D24.png"" style= ""width:200px""alt=""img"">
                                </div>
                            </div>","-134","","0","images/D24.png","","","","[""Hard"",""Soft""]"
"","","","","","html-slider-response","34","178829","0.0-30.0","8js4lu9z18","NaN","<div style=""width:500px;"">
                                <p style=""font-size:50px; font-weight:bold;""
                                ></p>
                                <div style=""width:240px; margin: auto;"">
                                    <img src=""images/D11.png"" style= ""width:200px""alt=""img"">
                                </div>
                            </div>","52","","0","images/D11.png","","","","[""Hard"",""Soft""]"
"","","","","","html-slider-response","35","181027","0.0-31.0","8js4lu9z18","NaN","<div style=""width:500px;"">
                                <p style=""font-size:50px; font-weight:bold;""
                                ></p>
                                <div style=""width:240px; margin: auto;"">
                                    <img src=""images/D47.png"" style= ""width:200px""alt=""img"">
                                </div>
                            </div>","46","","0","images/D47.png","","","","[""Hard"",""Soft""]"
"","","","","","html-slider-response","36","182944","0.0-32.0","8js4lu9z18","NaN","<div style=""width:500px;"">
                                <p style=""font-size:50px; font-weight:bold;""
                                ></p>
                                <div style=""width:240px; margin: auto;"">
                                    <img src=""images/D55.png"" style= ""width:200px""alt=""img"">
                                </div>
                            </div>","94","","0","images/D55.png","","","","[""Hard"",""Soft""]"
"","","","","","html-slider-response","37","184913","0.0-33.0","8js4lu9z18","NaN","<div style=""width:500px;"">
                                <p style=""font-size:50px; font-weight:bold;""
                                ></p>
                                <div style=""width:240px; margin: auto;"">
                                    <img src=""images/D32.png"" style= ""width:200px""alt=""img"">
                                </div>
                            </div>","62","","0","images/D32.png","","","","[""Hard"",""Soft""]"
"","","","","","html-slider-response","38","187510","0.0-34.0","8js4lu9z18","NaN","<div style=""width:500px;"">
                                <p style=""font-size:50px; font-weight:bold;""
                                ></p>
                                <div style=""width:240px; margin: auto;"">
                                    <img src=""images/D68.png"" style= ""width:200px""alt=""img"">
                                </div>
                            </div>","54","","0","images/D68.png","","","","[""Hard"",""Soft""]"
"","","","","","html-slider-response","39","190263","0.0-35.0","8js4lu9z18","NaN","<div style=""width:500px;"">
                                <p style=""font-size:50px; font-weight:bold;""
                                ></p>
                                <div style=""width:240px; margin: auto;"">
                                    <img src=""images/D80.png"" style= ""width:200px""alt=""img"">
                                </div>
                            </div>","45","","0","images/D80.png","","","","[""Hard"",""Soft""]"
"","","","","","html-slider-response","40","194576","0.0-36.0","8js4lu9z18","NaN","<div style=""width:500px;"">
                                <p style=""font-size:50px; font-weight:bold;""
                                ></p>
                                <div style=""width:240px; margin: auto;"">
                                    <img src=""images/D102.png"" style= ""width:200px""alt=""img"">
                                </div>
                            </div>","-24","","0","images/D102.png","","","","[""Hard"",""Soft""]"
"","","","","","html-slider-response","41","198310","0.0-37.0","8js4lu9z18","NaN","<div style=""width:500px;"">
                                <p style=""font-size:50px; font-weight:bold;""
                                ></p>
                                <div style=""width:240px; margin: auto;"">
                                    <img src=""images/D8.png"" style= ""width:200px""alt=""img"">
                                </div>
                            </div>","138","","0","images/D8.png","","","","[""Hard"",""Soft""]"
"","","","","","html-slider-response","42","200576","0.0-38.0","8js4lu9z18","NaN","<div style=""width:500px;"">
                                <p style=""font-size:50px; font-weight:bold;""
                                ></p>
                                <div style=""width:240px; margin: auto;"">
                                    <img src=""images/D105.png"" style= ""width:200px""alt=""img"">
                                </div>
                            </div>","-18","","0","images/D105.png","","","","[""Hard"",""Soft""]"
"","","","","","html-slider-response","43","206027","0.0-39.0","8js4lu9z18","NaN","<div style=""width:500px;"">
                                <p style=""font-size:50px; font-weight:bold;""
                                ></p>
                                <div style=""width:240px; margin: auto;"">
                                    <img src=""images/D66.png"" style= ""width:200px""alt=""img"">
                                </div>
                            </div>","-22","","0","images/D66.png","","","","[""Hard"",""Soft""]"
"","","","","","html-slider-response","44","208027","0.0-40.0","8js4lu9z18","NaN","<div style=""width:500px;"">
                                <p style=""font-size:50px; font-weight:bold;""
                                ></p>
                                <div style=""width:240px; margin: auto;"">
                                    <img src=""images/D17.png"" style= ""width:200px""alt=""img"">
                                </div>
                            </div>","41","","0","images/D17.png","","","","[""Hard"",""Soft""]"
"","","","","","html-slider-response","45","209978","0.0-41.0","8js4lu9z18","NaN","<div style=""width:500px;"">
                                <p style=""font-size:50px; font-weight:bold;""
                                ></p>
                                <div style=""width:240px; margin: auto;"">
                                    <img src=""images/D26.png"" style= ""width:200px""alt=""img"">
                                </div>
                            </div>","-134","","0","images/D26.png","","","","[""Hard"",""Soft""]"
"","","","","","html-slider-response","46","212278","0.0-42.0","8js4lu9z18","NaN","<div style=""width:500px;"">
                                <p style=""font-size:50px; font-weight:bold;""
                                ></p>
                                <div style=""width:240px; margin: auto;"">
                                    <img src=""images/D101.png"" style= ""width:200px""alt=""img"">
                                </div>
                            </div>","-45","","0","images/D101.png","","","","[""Hard"",""Soft""]"
"","","","","","html-slider-response","47","214915","0.0-43.0","8js4lu9z18","NaN","<div style=""width:500px;"">
                                <p style=""font-size:50px; font-weight:bold;""
                                ></p>
                                <div style=""width:240px; margin: auto;"">
                                    <img src=""images/D1.png"" style= ""width:200px""alt=""img"">
                                </div>
                            </div>","-124","","0","images/D1.png","","","","[""Hard"",""Soft""]"
"","","","","","html-slider-response","48","217328","0.0-44.0","8js4lu9z18","NaN","<div style=""width:500px;"">
                                <p style=""font-size:50px; font-weight:bold;""
                                ></p>
                                <div style=""width:240px; margin: auto;"">
                                    <img src=""images/D52.png"" style= ""width:200px""alt=""img"">
                                </div>
                            </div>","-32","","0","images/D52.png","","","","[""Hard"",""Soft""]"
"","","","","","html-slider-response","49","219195","0.0-45.0","8js4lu9z18","NaN","<div style=""width:500px;"">
                                <p style=""font-size:50px; font-weight:bold;""
                                ></p>
                                <div style=""width:240px; margin: auto;"">
                                    <img src=""images/D20.png"" style= ""width:200px""alt=""img"">
                                </div>
                            </div>","-39","","0","images/D20.png","","","","[""Hard"",""Soft""]"
"","","","","","html-slider-response","50","221160","0.0-46.0","8js4lu9z18","NaN","<div style=""width:500px;"">
                                <p style=""font-size:50px; font-weight:bold;""
                                ></p>
                                <div style=""width:240px; margin: auto;"">
                                    <img src=""images/D106.png"" style= ""width:200px""alt=""img"">
                                </div>
                            </div>","49","","0","images/D106.png","","","","[""Hard"",""Soft""]"
"","","","","","html-slider-response","51","226328","0.0-47.0","8js4lu9z18","NaN","<div style=""width:500px;"">
                                <p style=""font-size:50px; font-weight:bold;""
                                ></p>
                                <div style=""width:240px; margin: auto;"">
                                    <img src=""images/D29.png"" style= ""width:200px""alt=""img"">
                                </div>
                            </div>","50","","0","images/D29.png","","","","[""Hard"",""Soft""]"
"","","","","","html-slider-response","52","229228","0.0-48.0","8js4lu9z18","NaN","<div style=""width:500px;"">
                                <p style=""font-size:50px; font-weight:bold;""
                                ></p>
                                <div style=""width:240px; margin: auto;"">
                                    <img src=""images/D6.png"" style= ""width:200px""alt=""img"">
                                </div>
                            </div>","39","","0","images/D6.png","","","","[""Hard"",""Soft""]"
"","","","","","html-slider-response","53","232628","0.0-49.0","8js4lu9z18","NaN","<div style=""width:500px;"">
                                <p style=""font-size:50px; font-weight:bold;""
                                ></p>
                                <div style=""width:240px; margin: auto;"">
                                    <img src=""images/D56.png"" style= ""width:200px""alt=""img"">
                                </div>
                            </div>","16","","0","images/D56.png","","","","[""Hard"",""Soft""]"
"","","","","","html-slider-response","54","235060","0.0-50.0","8js4lu9z18","NaN","<div style=""width:500px;"">
                                <p style=""font-size:50px; font-weight:bold;""
                                ></p>
                                <div style=""width:240px; margin: auto;"">
                                    <img src=""images/D78.png"" style= ""width:200px""alt=""img"">
                                </div>
                            </div>","106","","0","images/D78.png","","","","[""Hard"",""Soft""]"
"","","","","","html-slider-response","55","236779","0.0-51.0","8js4lu9z18","NaN","<div style=""width:500px;"">
                                <p style=""font-size:50px; font-weight:bold;""
                                ></p>
                                <div style=""width:240px; margin: auto;"">
                                    <img src=""images/D92.png"" style= ""width:200px""alt=""img"">
                                </div>
                            </div>","66","","0","images/D92.png","","","","[""Hard"",""Soft""]"
"","","","","","html-slider-response","56","238765","0.0-52.0","8js4lu9z18","NaN","<div style=""width:500px;"">
                                <p style=""font-size:50px; font-weight:bold;""
                                ></p>
                                <div style=""width:240px; margin: auto;"">
                                    <img src=""images/D84.png"" style= ""width:200px""alt=""img"">
                                </div>
                            </div>","80","","0","images/D84.png","","","","[""Hard"",""Soft""]"
"","","","","","html-slider-response","57","240643","0.0-53.0","8js4lu9z18","NaN","<div style=""width:500px;"">
                                <p style=""font-size:50px; font-weight:bold;""
                                ></p>
                                <div style=""width:240px; margin: auto;"">
                                    <img src=""images/D75.png"" style= ""width:200px""alt=""img"">
                                </div>
                            </div>","98","","0","images/D75.png","","","","[""Hard"",""Soft""]"
"","","","","","html-slider-response","58","242711","0.0-54.0","8js4lu9z18","NaN","<div style=""width:500px;"">
                                <p style=""font-size:50px; font-weight:bold;""
                                ></p>
                                <div style=""width:240px; margin: auto;"">
                                    <img src=""images/D64.png"" style= ""width:200px""alt=""img"">
                                </div>
                            </div>","-12","","0","images/D64.png","","","","[""Hard"",""Soft""]"
"","","","","","html-slider-response","59","244862","0.0-55.0","8js4lu9z18","NaN","<div style=""width:500px;"">
                                <p style=""font-size:50px; font-weight:bold;""
                                ></p>
                                <div style=""width:240px; margin: auto;"">
                                    <img src=""images/D81.png"" style= ""width:200px""alt=""img"">
                                </div>
                            </div>","38","","0","images/D81.png","","","","[""Hard"",""Soft""]"
"","","","","","html-slider-response","60","246762","0.0-56.0","8js4lu9z18","NaN","<div style=""width:500px;"">
                                <p style=""font-size:50px; font-weight:bold;""
                                ></p>
                                <div style=""width:240px; margin: auto;"">
                                    <img src=""images/D22.png"" style= ""width:200px""alt=""img"">
                                </div>
                            </div>","63","","0","images/D22.png","","","","[""Hard"",""Soft""]"
"","","","","","html-slider-response","61","248594","0.0-57.0","8js4lu9z18","NaN","<div style=""width:500px;"">
                                <p style=""font-size:50px; font-weight:bold;""
                                ></p>
                                <div style=""width:240px; margin: auto;"">
                                    <img src=""images/D49.png"" style= ""width:200px""alt=""img"">
                                </div>
                            </div>","62","","0","images/D49.png","","","","[""Hard"",""Soft""]"
"","","","","","html-slider-response","62","250528","0.0-58.0","8js4lu9z18","NaN","<div style=""width:500px;"">
                                <p style=""font-size:50px; font-weight:bold;""
                                ></p>
                                <div style=""width:240px; margin: auto;"">
                                    <img src=""images/D111.png"" style= ""width:200px""alt=""img"">
                                </div>
                            </div>","49","","0","images/D111.png","","","","[""Hard"",""Soft""]"
"","","","","","html-slider-response","63","252277","0.0-59.0","8js4lu9z18","NaN","<div style=""width:500px;"">
                                <p style=""font-size:50px; font-weight:bold;""
                                ></p>
                                <div style=""width:240px; margin: auto;"">
                                    <img src=""images/D4.png"" style= ""width:200px""alt=""img"">
                                </div>
                            </div>","-41","","0","images/D4.png","","","","[""Hard"",""Soft""]"
"","","","","","html-slider-response","64","254094","0.0-60.0","8js4lu9z18","NaN","<div style=""width:500px;"">
                                <p style=""font-size:50px; font-weight:bold;""
                                ></p>
                                <div style=""width:240px; margin: auto;"">
                                    <img src=""images/D21.png"" style= ""width:200px""alt=""img"">
                                </div>
                            </div>","55","","0","images/D21.png","","","","[""Hard"",""Soft""]"
"","","","","","html-slider-response","65","258261","0.0-61.0","8js4lu9z18","NaN","<div style=""width:500px;"">
                                <p style=""font-size:50px; font-weight:bold;""
                                ></p>
                                <div style=""width:240px; margin: auto;"">
                                    <img src=""images/D34.png"" style= ""width:200px""alt=""img"">
                                </div>
                            </div>","30","","0","images/D34.png","","","","[""Hard"",""Soft""]"
"","","","","","html-slider-response","66","259976","0.0-62.0","8js4lu9z18","NaN","<div style=""width:500px;"">
                                <p style=""font-size:50px; font-weight:bold;""
                                ></p>
                                <div style=""width:240px; margin: auto;"">
                                    <img src=""images/D87.png"" style= ""width:200px""alt=""img"">
                                </div>
                            </div>","-70","","0","images/D87.png","","","","[""Hard"",""Soft""]"
"","","","","","html-slider-response","67","261896","0.0-63.0","8js4lu9z18","NaN","<div style=""width:500px;"">
                                <p style=""font-size:50px; font-weight:bold;""
                                ></p>
                                <div style=""width:240px; margin: auto;"">
                                    <img src=""images/D25.png"" style= ""width:200px""alt=""img"">
                                </div>
                            </div>","-167","","0","images/D25.png","","","","[""Hard"",""Soft""]"
"","","","","","html-slider-response","68","268778","0.0-64.0","8js4lu9z18","NaN","<div style=""width:500px;"">
                                <p style=""font-size:50px; font-weight:bold;""
                                ></p>
                                <div style=""width:240px; margin: auto;"">
                                    <img src=""images/D36.png"" style= ""width:200px""alt=""img"">
                                </div>
                            </div>","30","","0","images/D36.png","","","","[""Hard"",""Soft""]"
"","","","","","html-slider-response","69","271029","0.0-65.0","8js4lu9z18","NaN","<div style=""width:500px;"">
                                <p style=""font-size:50px; font-weight:bold;""
                                ></p>
                                <div style=""width:240px; margin: auto;"">
                                    <img src=""images/D82.png"" style= ""width:200px""alt=""img"">
                                </div>
                            </div>","117","","0","images/D82.png","","","","[""Hard"",""Soft""]"
"","","","","","html-slider-response","70","273327","0.0-66.0","8js4lu9z18","NaN","<div style=""width:500px;"">
                                <p style=""font-size:50px; font-weight:bold;""
                                ></p>
                                <div style=""width:240px; margin: auto;"">
                                    <img src=""images/D18.png"" style= ""width:200px""alt=""img"">
                                </div>
                            </div>","-111","","0","images/D18.png","","","","[""Hard"",""Soft""]"
"","","","","","html-slider-response","71","279094","0.0-67.0","8js4lu9z18","NaN","<div style=""width:500px;"">
                                <p style=""font-size:50px; font-weight:bold;""
                                ></p>
                                <div style=""width:240px; margin: auto;"">
                                    <img src=""images/D83.png"" style= ""width:200px""alt=""img"">
                                </div>
                            </div>","46","","0","images/D83.png","","","","[""Hard"",""Soft""]"
"","","","","","html-slider-response","72","281061","0.0-68.0","8js4lu9z18","NaN","<div style=""width:500px;"">
                                <p style=""font-size:50px; font-weight:bold;""
                                ></p>
                                <div style=""width:240px; margin: auto;"">
                                    <img src=""images/D95.png"" style= ""width:200px""alt=""img"">
                                </div>
                            </div>","-152","","0","images/D95.png","","","","[""Hard"",""Soft""]"
"","","","","","html-slider-response","73","283194","0.0-69.0","8js4lu9z18","NaN","<div style=""width:500px;"">
                                <p style=""font-size:50px; font-weight:bold;""
                                ></p>
                                <div style=""width:240px; margin: auto;"">
                                    <img src=""images/D48.png"" style= ""width:200px""alt=""img"">
                                </div>
                            </div>","146","","0","images/D48.png","","","","[""Hard"",""Soft""]"
"","","","","","html-slider-response","74","285726","0.0-70.0","8js4lu9z18","NaN","<div style=""width:500px;"">
                                <p style=""font-size:50px; font-weight:bold;""
                                ></p>
                                <div style=""width:240px; margin: auto;"">
                                    <img src=""images/D9.png"" style= ""width:200px""alt=""img"">
                                </div>
                            </div>","-66","","0","images/D9.png","","","","[""Hard"",""Soft""]"
"","","","","","html-slider-response","75","287762","0.0-71.0","8js4lu9z18","NaN","<div style=""width:500px;"">
                                <p style=""font-size:50px; font-weight:bold;""
                                ></p>
                                <div style=""width:240px; margin: auto;"">
                                    <img src=""images/D96.png"" style= ""width:200px""alt=""img"">
                                </div>
                            </div>","-155","","0","images/D96.png","","","","[""Hard"",""Soft""]"
"","","","","","html-slider-response","76","289312","0.0-72.0","8js4lu9z18","NaN","<div style=""width:500px;"">
                                <p style=""font-size:50px; font-weight:bold;""
                                ></p>
                                <div style=""width:240px; margin: auto;"">
                                    <img src=""images/D53.png"" style= ""width:200px""alt=""img"">
                                </div>
                            </div>","63","","0","images/D53.png","","","","[""Hard"",""Soft""]"
"","","","","","html-slider-response","77","291194","0.0-73.0","8js4lu9z18","NaN","<div style=""width:500px;"">
                                <p style=""font-size:50px; font-weight:bold;""
                                ></p>
                                <div style=""width:240px; margin: auto;"">
                                    <img src=""images/D16.png"" style= ""width:200px""alt=""img"">
                                </div>
                            </div>","94","","0","images/D16.png","","","","[""Hard"",""Soft""]"
"","","","","","html-slider-response","78","295378","0.0-74.0","8js4lu9z18","NaN","<div style=""width:500px;"">
                                <p style=""font-size:50px; font-weight:bold;""
                                ></p>
                                <div style=""width:240px; margin: auto;"">
                                    <img src=""images/D65.png"" style= ""width:200px""alt=""img"">
                                </div>
                            </div>","45","","0","images/D65.png","","","","[""Hard"",""Soft""]"
"","","","","","html-slider-response","79","297228","0.0-75.0","8js4lu9z18","NaN","<div style=""width:500px;"">
                                <p style=""font-size:50px; font-weight:bold;""
                                ></p>
                                <div style=""width:240px; margin: auto;"">
                                    <img src=""images/D74.png"" style= ""width:200px""alt=""img"">
                                </div>
                            </div>","121","","0","images/D74.png","","","","[""Hard"",""Soft""]"
"","","","","","html-button-response","80","300033","0.0-76.0","8js4lu9z18","2302","You have completed the first block of trials out of six. Please click 'Continue' when you are ready proceed.","0","","","","","","",""
"","","","","","html-button-response","81","301383","0.0-77.0","8js4lu9z18","1349","In the following trials, you will be asked to rate textures on the scale <b>Smooth</b> versus <b>Rough</b>. Please click 'Continue' when you are ready proceed.","0","","","","","","",""
"","","","","","html-slider-response","82","303163","0.0-78.0","8js4lu9z18","NaN","<div style=""width:500px;"">
                                <p style=""font-size:50px; font-weight:bold;""
                                ></p>
                                <div style=""width:240px; margin: auto;"">
                                    <img src=""images/D85.png"" style= ""width:200px""alt=""img"">
                                </div>
                            </div>","121","","0","images/D85.png","","","","[""Smooth"",""Rough""]"
"","","","","","html-slider-response","83","304860","0.0-79.0","8js4lu9z18","NaN","<div style=""width:500px;"">
                                <p style=""font-size:50px; font-weight:bold;""
                                ></p>
                                <div style=""width:240px; margin: auto;"">
                                    <img src=""images/D57.png"" style= ""width:200px""alt=""img"">
                                </div>
                            </div>","130","","0","images/D57.png","","","","[""Smooth"",""Rough""]"
"","","","","","html-slider-response","84","307231","0.0-80.0","8js4lu9z18","NaN","<div style=""width:500px;"">
                                <p style=""font-size:50px; font-weight:bold;""
                                ></p>
                                <div style=""width:240px; margin: auto;"">
                                    <img src=""images/D104.png"" style= ""width:200px""alt=""img"">
                                </div>
                            </div>","59","","0","images/D104.png","","","","[""Smooth"",""Rough""]"
"","","","","","html-slider-response","85","309196","0.0-81.0","8js4lu9z18","NaN","<div style=""width:500px;"">
                                <p style=""font-size:50px; font-weight:bold;""
                                ></p>
                                <div style=""width:240px; margin: auto;"">
                                    <img src=""images/D46.png"" style= ""width:200px""alt=""img"">
                                </div>
                            </div>","-138","","0","images/D46.png","","","","[""Smooth"",""Rough""]"
"","","","","","html-slider-response","86","311298","0.0-82.0","8js4lu9z18","NaN","<div style=""width:500px;"">
                                <p style=""font-size:50px; font-weight:bold;""
                                ></p>
                                <div style=""width:240px; margin: auto;"">
                                    <img src=""images/D94.png"" style= ""width:200px""alt=""img"">
                                </div>
                            </div>","-42","","0","images/D94.png","","","","[""Smooth"",""Rough""]"
"","","","","","html-slider-response","87","313928","0.0-83.0","8js4lu9z18","NaN","<div style=""width:500px;"">
                                <p style=""font-size:50px; font-weight:bold;""
                                ></p>
                                <div style=""width:240px; margin: auto;"">
                                    <img src=""images/D103.png"" style= ""width:200px""alt=""img"">
                                </div>
                            </div>","110","","0","images/D103.png","","","","[""Smooth"",""Rough""]"
"","","","","","html-slider-response","88","315777","0.0-84.0","8js4lu9z18","NaN","<div style=""width:500px;"">
                                <p style=""font-size:50px; font-weight:bold;""
                                ></p>
                                <div style=""width:240px; margin: auto;"">
                                    <img src=""images/D19.png"" style= ""width:200px""alt=""img"">
                                </div>
                            </div>","60","","0","images/D19.png","","","","[""Smooth"",""Rough""]"
"","","","","","html-slider-response","89","317494","0.0-85.0","8js4lu9z18","NaN","<div style=""width:500px;"">
                                <p style=""font-size:50px; font-weight:bold;""
                                ></p>
                                <div style=""width:240px; margin: auto;"">
                                    <img src=""images/D3.png"" style= ""width:200px""alt=""img"">
                                </div>
                            </div>","-76","","0","images/D3.png","","","","[""Smooth"",""Rough""]"
"","","","","","html-slider-response","90","319743","0.0-86.0","8js4lu9z18","NaN","<div style=""width:500px;"">
                                <p style=""font-size:50px; font-weight:bold;""
                                ></p>
                                <div style=""width:240px; margin: auto;"">
                                    <img src=""images/D35.png"" style= ""width:200px""alt=""img"">
                                </div>
                            </div>","74","","0","images/D35.png","","","","[""Smooth"",""Rough""]"
"","","","","","html-slider-response","91","321343","0.0-87.0","8js4lu9z18","NaN","<div style=""width:500px;"">
                                <p style=""font-size:50px; font-weight:bold;""
                                ></p>
                                <div style=""width:240px; margin: auto;"">
                                    <img src=""images/D14.png"" style= ""width:200px""alt=""img"">
                                </div>
                            </div>","109","","0","images/D14.png","","","","[""Smooth"",""Rough""]"
"","","","","","html-slider-response","92","325095","0.0-88.0","8js4lu9z18","NaN","<div style=""width:500px;"">
                                <p style=""font-size:50px; font-weight:bold;""
                                ></p>
                                <div style=""width:240px; margin: auto;"">
                                    <img src=""images/D37.png"" style= ""width:200px""alt=""img"">
                                </div>
                            </div>","89","","0","images/D37.png","","","","[""Smooth"",""Rough""]"
"","","","","","html-slider-response","93","327696","0.0-89.0","8js4lu9z18","NaN","<div style=""width:500px;"">
                                <p style=""font-size:50px; font-weight:bold;""
                                ></p>
                                <div style=""width:240px; margin: auto;"">
                                    <img src=""images/D77.png"" style= ""width:200px""alt=""img"">
                                </div>
                            </div>","-140","","0","images/D77.png","","","","[""Smooth"",""Rough""]"
"","","","","","html-slider-response","94","329744","0.0-90.0","8js4lu9z18","NaN","<div style=""width:500px;"">
                                <p style=""font-size:50px; font-weight:bold;""
                                ></p>
                                <div style=""width:240px; margin: auto;"">
                                    <img src=""images/D79.png"" style= ""width:200px""alt=""img"">
                                </div>
                            </div>","-30","","0","images/D79.png","","","","[""Smooth"",""Rough""]"
"","","","","","html-slider-response","95","331862","0.0-91.0","8js4lu9z18","NaN","<div style=""width:500px;"">
                                <p style=""font-size:50px; font-weight:bold;""
                                ></p>
                                <div style=""width:240px; margin: auto;"">
                                    <img src=""images/D51.png"" style= ""width:200px""alt=""img"">
                                </div>
                            </div>","-146","","0","images/D51.png","","","","[""Smooth"",""Rough""]"
"","","","","","html-slider-response","96","335244","0.0-92.0","8js4lu9z18","NaN","<div style=""width:500px;"">
                                <p style=""font-size:50px; font-weight:bold;""
                                ></p>
                                <div style=""width:240px; margin: auto;"">
                                    <img src=""images/D76.png"" style= ""width:200px""alt=""img"">
                                </div>
                            </div>","-26","","0","images/D76.png","","","","[""Smooth"",""Rough""]"
"","","","","","html-slider-response","97","337094","0.0-93.0","8js4lu9z18","NaN","<div style=""width:500px;"">
                                <p style=""font-size:50px; font-weight:bold;""
                                ></p>
                                <div style=""width:240px; margin: auto;"">
                                    <img src=""images/D24.png"" style= ""width:200px""alt=""img"">
                                </div>
                            </div>","95","","0","images/D24.png","","","","[""Smooth"",""Rough""]"
"","","","","","html-slider-response","98","339294","0.0-94.0","8js4lu9z18","NaN","<div style=""width:500px;"">
                                <p style=""font-size:50px; font-weight:bold;""
                                ></p>
                                <div style=""width:240px; margin: auto;"">
                                    <img src=""images/D11.png"" style= ""width:200px""alt=""img"">
                                </div>
                            </div>","-58","","0","images/D11.png","","","","[""Smooth"",""Rough""]"
"","","","","","html-slider-response","99","341346","0.0-95.0","8js4lu9z18","NaN","<div style=""width:500px;"">
                                <p style=""font-size:50px; font-weight:bold;""
                                ></p>
                                <div style=""width:240px; margin: auto;"">
                                    <img src=""images/D47.png"" style= ""width:200px""alt=""img"">
                                </div>
                            </div>","-166","","0","images/D47.png","","","","[""Smooth"",""Rough""]"
"","","","","","html-slider-response","100","344063","0.0-96.0","8js4lu9z18","NaN","<div style=""width:500px;"">
                                <p style=""font-size:50px; font-weight:bold;""
                                ></p>
                                <div style=""width:240px; margin: auto;"">
                                    <img src=""images/D55.png"" style= ""width:200px""alt=""img"">
                                </div>
                            </div>","-112","","0","images/D55.png","","","","[""Smooth"",""Rough""]"
"","","","","","html-slider-response","101","348244","0.0-97.0","8js4lu9z18","NaN","<div style=""width:500px;"">
                                <p style=""font-size:50px; font-weight:bold;""
                                ></p>
                                <div style=""width:240px; margin: auto;"">
                                    <img src=""images/D32.png"" style= ""width:200px""alt=""img"">
                                </div>
                            </div>","38","","0","images/D32.png","","","","[""Smooth"",""Rough""]"
"","","","","","html-slider-response","102","350543","0.0-98.0","8js4lu9z18","NaN","<div style=""width:500px;"">
                                <p style=""font-size:50px; font-weight:bold;""
                                ></p>
                                <div style=""width:240px; margin: auto;"">
                                    <img src=""images/D68.png"" style= ""width:200px""alt=""img"">
                                </div>
                            </div>","-25","","0","images/D68.png","","","","[""Smooth"",""Rough""]"
"","","","","","html-slider-response","103","352493","0.0-99.0","8js4lu9z18","NaN","<div style=""width:500px;"">
                                <p style=""font-size:50px; font-weight:bold;""
                                ></p>
                                <div style=""width:240px; margin: auto;"">
                                    <img src=""images/D80.png"" style= ""width:200px""alt=""img"">
                                </div>
                            </div>","35","","0","images/D80.png","","","","[""Smooth"",""Rough""]"
"","","","","","html-slider-response","104","354610","0.0-100.0","8js4lu9z18","NaN","<div style=""width:500px;"">
                                <p style=""font-size:50px; font-weight:bold;""
                                ></p>
                                <div style=""width:240px; margin: auto;"">
                                    <img src=""images/D102.png"" style= ""width:200px""alt=""img"">
                                </div>
                            </div>","-176","","0","images/D102.png","","","","[""Smooth"",""Rough""]"
"","","","","","html-slider-response","105","356343","0.0-101.0","8js4lu9z18","NaN","<div style=""width:500px;"">
                                <p style=""font-size:50px; font-weight:bold;""
                                ></p>
                                <div style=""width:240px; margin: auto;"">
                                    <img src=""images/D8.png"" style= ""width:200px""alt=""img"">
                                </div>
                            </div>","-200","","0","images/D8.png","","","","[""Smooth"",""Rough""]"
"","","","","","html-slider-response","106","357929","0.0-102.0","8js4lu9z18","NaN","<div style=""width:500px;"">
                                <p style=""font-size:50px; font-weight:bold;""
                                ></p>
                                <div style=""width:240px; margin: auto;"">
                                    <img src=""images/D105.png"" style= ""width:200px""alt=""img"">
                                </div>
                            </div>","-62","","0","images/D105.png","","","","[""Smooth"",""Rough""]"
"","","","","","html-slider-response","107","359661","0.0-103.0","8js4lu9z18","NaN","<div style=""width:500px;"">
                                <p style=""font-size:50px; font-weight:bold;""
                                ></p>
                                <div style=""width:240px; margin: auto;"">
                                    <img src=""images/D66.png"" style= ""width:200px""alt=""img"">
                                </div>
                            </div>","-78","","0","images/D66.png","","","","[""Smooth"",""Rough""]"
"","","","","","html-slider-response","108","361510","0.0-104.0","8js4lu9z18","NaN","<div style=""width:500px;"">
                                <p style=""font-size:50px; font-weight:bold;""
                                ></p>
                                <div style=""width:240px; margin: auto;"">
                                    <img src=""images/D17.png"" style= ""width:200px""alt=""img"">
                                </div>
                            </div>","-43","","0","images/D17.png","","","","[""Smooth"",""Rough""]"
"","","","","","html-slider-response","109","363211","0.0-105.0","8js4lu9z18","NaN","<div style=""width:500px;"">
                                <p style=""font-size:50px; font-weight:bold;""
                                ></p>
                                <div style=""width:240px; margin: auto;"">
                                    <img src=""images/D26.png"" style= ""width:200px""alt=""img"">
                                </div>
                            </div>","-122","","0","images/D26.png","","","","[""Smooth"",""Rough""]"
"","","","","","html-slider-response","110","365011","0.0-106.0","8js4lu9z18","NaN","<div style=""width:500px;"">
                                <p style=""font-size:50px; font-weight:bold;""
                                ></p>
                                <div style=""width:240px; margin: auto;"">
                                    <img src=""images/D101.png"" style= ""width:200px""alt=""img"">
                                </div>
                            </div>","-115","","0","images/D101.png","","","","[""Smooth"",""Rough""]"
"","","","","","html-slider-response","111","366826","0.0-107.0","8js4lu9z18","NaN","<div style=""width:500px;"">
                                <p style=""font-size:50px; font-weight:bold;""
                                ></p>
                                <div style=""width:240px; margin: auto;"">
                                    <img src=""images/D1.png"" style= ""width:200px""alt=""img"">
                                </div>
                            </div>","-80","","0","images/D1.png","","","","[""Smooth"",""Rough""]"
"","","","","","html-slider-response","112","368797","0.0-108.0","8js4lu9z18","NaN","<div style=""width:500px;"">
                                <p style=""font-size:50px; font-weight:bold;""
                                ></p>
                                <div style=""width:240px; margin: auto;"">
                                    <img src=""images/D52.png"" style= ""width:200px""alt=""img"">
                                </div>
                            </div>","-138","","0","images/D52.png","","","","[""Smooth"",""Rough""]"
"","","","","","html-slider-response","113","370477","0.0-109.0","8js4lu9z18","NaN","<div style=""width:500px;"">
                                <p style=""font-size:50px; font-weight:bold;""
                                ></p>
                                <div style=""width:240px; margin: auto;"">
                                    <img src=""images/D20.png"" style= ""width:200px""alt=""img"">
                                </div>
                            </div>","-102","","0","images/D20.png","","","","[""Smooth"",""Rough""]"
"","","","","","html-slider-response","114","372795","0.0-110.0","8js4lu9z18","NaN","<div style=""width:500px;"">
                                <p style=""font-size:50px; font-weight:bold;""
                                ></p>
                                <div style=""width:240px; margin: auto;"">
                                    <img src=""images/D106.png"" style= ""width:200px""alt=""img"">
                                </div>
                            </div>","-62","","0","images/D106.png","","","","[""Smooth"",""Rough""]"
"","","","","","html-slider-response","115","374494","0.0-111.0","8js4lu9z18","NaN","<div style=""width:500px;"">
                                <p style=""font-size:50px; font-weight:bold;""
                                ></p>
                                <div style=""width:240px; margin: auto;"">
                                    <img src=""images/D29.png"" style= ""width:200px""alt=""img"">
                                </div>
                            </div>","64","","0","images/D29.png","","","","[""Smooth"",""Rough""]"
"","","","","","html-slider-response","116","376326","0.0-112.0","8js4lu9z18","NaN","<div style=""width:500px;"">
                                <p style=""font-size:50px; font-weight:bold;""
                                ></p>
                                <div style=""width:240px; margin: auto;"">
                                    <img src=""images/D6.png"" style= ""width:200px""alt=""img"">
                                </div>
                            </div>","-132","","0","images/D6.png","","","","[""Smooth"",""Rough""]"
"","","","","","html-slider-response","117","378895","0.0-113.0","8js4lu9z18","NaN","<div style=""width:500px;"">
                                <p style=""font-size:50px; font-weight:bold;""
                                ></p>
                                <div style=""width:240px; margin: auto;"">
                                    <img src=""images/D56.png"" style= ""width:200px""alt=""img"">
                                </div>
                            </div>","-96","","0","images/D56.png","","","","[""Smooth"",""Rough""]"
"","","","","","html-slider-response","118","380511","0.0-114.0","8js4lu9z18","NaN","<div style=""width:500px;"">
                                <p style=""font-size:50px; font-weight:bold;""
                                ></p>
                                <div style=""width:240px; margin: auto;"">
                                    <img src=""images/D78.png"" style= ""width:200px""alt=""img"">
                                </div>
                            </div>","-49","","0","images/D78.png","","","","[""Smooth"",""Rough""]"
"","","","","","html-slider-response","119","382112","0.0-115.0","8js4lu9z18","NaN","<div style=""width:500px;"">
                                <p style=""font-size:50px; font-weight:bold;""
                                ></p>
                                <div style=""width:240px; margin: auto;"">
                                    <img src=""images/D92.png"" style= ""width:200px""alt=""img"">
                                </div>
                            </div>","75","","0","images/D92.png","","","","[""Smooth"",""Rough""]"
"","","","","","html-slider-response","120","383577","0.0-116.0","8js4lu9z18","NaN","<div style=""width:500px;"">
                                <p style=""font-size:50px; font-weight:bold;""
                                ></p>
                                <div style=""width:240px; margin: auto;"">
                                    <img src=""images/D84.png"" style= ""width:200px""alt=""img"">
                                </div>
                            </div>","37","","0","images/D84.png","","","","[""Smooth"",""Rough""]"
"","","","","","html-slider-response","121","385193","0.0-117.0","8js4lu9z18","NaN","<div style=""width:500px;"">
                                <p style=""font-size:50px; font-weight:bold;""
                                ></p>
                                <div style=""width:240px; margin: auto;"">
                                    <img src=""images/D75.png"" style= ""width:200px""alt=""img"">
                                </div>
                            </div>","-172","","0","images/D75.png","","","","[""Smooth"",""Rough""]"
"","","","","","html-slider-response","122","387130","0.0-118.0","8js4lu9z18","NaN","<div style=""width:500px;"">
                                <p style=""font-size:50px; font-weight:bold;""
                                ></p>
                                <div style=""width:240px; margin: auto;"">
                                    <img src=""images/D64.png"" style= ""width:200px""alt=""img"">
                                </div>
                            </div>","-146","","0","images/D64.png","","","","[""Smooth"",""Rough""]"
"","","","","","html-slider-response","123","388994","0.0-119.0","8js4lu9z18","NaN","<div style=""width:500px;"">
                                <p style=""font-size:50px; font-weight:bold;""
                                ></p>
                                <div style=""width:240px; margin: auto;"">
                                    <img src=""images/D81.png"" style= ""width:200px""alt=""img"">
                                </div>
                            </div>","55","","0","images/D81.png","","","","[""Smooth"",""Rough""]"
"","","","","","html-slider-response","124","390779","0.0-120.0","8js4lu9z18","NaN","<div style=""width:500px;"">
                                <p style=""font-size:50px; font-weight:bold;""
                                ></p>
                                <div style=""width:240px; margin: auto;"">
                                    <img src=""images/D22.png"" style= ""width:200px""alt=""img"">
                                </div>
                            </div>","-38","","0","images/D22.png","","","","[""Smooth"",""Rough""]"
"","","","","","html-slider-response","125","392694","0.0-121.0","8js4lu9z18","NaN","<div style=""width:500px;"">
                                <p style=""font-size:50px; font-weight:bold;""
                                ></p>
                                <div style=""width:240px; margin: auto;"">
                                    <img src=""images/D49.png"" style= ""width:200px""alt=""img"">
                                </div>
                            </div>","-175","","0","images/D49.png","","","","[""Smooth"",""Rough""]"
"","","","","","html-slider-response","126","394278","0.0-122.0","8js4lu9z18","NaN","<div style=""width:500px;"">
                                <p style=""font-size:50px; font-weight:bold;""
                                ></p>
                                <div style=""width:240px; margin: auto;"">
                                    <img src=""images/D111.png"" style= ""width:200px""alt=""img"">
                                </div>
                            </div>","-84","","0","images/D111.png","","","","[""Smooth"",""Rough""]"
"","","","","","html-slider-response","127","395994","0.0-123.0","8js4lu9z18","NaN","<div style=""width:500px;"">
                                <p style=""font-size:50px; font-weight:bold;""
                                ></p>
                                <div style=""width:240px; margin: auto;"">
                                    <img src=""images/D4.png"" style= ""width:200px""alt=""img"">
                                </div>
                            </div>","134","","0","images/D4.png","","","","[""Smooth"",""Rough""]"
"","","","","","html-slider-response","128","397543","0.0-124.0","8js4lu9z18","NaN","<div style=""width:500px;"">
                                <p style=""font-size:50px; font-weight:bold;""
                                ></p>
                                <div style=""width:240px; margin: auto;"">
                                    <img src=""images/D21.png"" style= ""width:200px""alt=""img"">
                                </div>
                            </div>","-54","","0","images/D21.png","","","","[""Smooth"",""Rough""]"
"","","","","","html-slider-response","129","398976","0.0-125.0","8js4lu9z18","NaN","<div style=""width:500px;"">
                                <p style=""font-size:50px; font-weight:bold;""
                                ></p>
                                <div style=""width:240px; margin: auto;"">
                                    <img src=""images/D34.png"" style= ""width:200px""alt=""img"">
                                </div>
                            </div>","-96","","0","images/D34.png","","","","[""Smooth"",""Rough""]"
"","","","","","html-slider-response","130","400459","0.0-126.0","8js4lu9z18","NaN","<div style=""width:500px;"">
                                <p style=""font-size:50px; font-weight:bold;""
                                ></p>
                                <div style=""width:240px; margin: auto;"">
                                    <img src=""images/D87.png"" style= ""width:200px""alt=""img"">
                                </div>
                            </div>","31","","0","images/D87.png","","","","[""Smooth"",""Rough""]"
"","","","","","html-slider-response","131","402811","0.0-127.0","8js4lu9z18","NaN","<div style=""width:500px;"">
                                <p style=""font-size:50px; font-weight:bold;""
                                ></p>
                                <div style=""width:240px; margin: auto;"">
                                    <img src=""images/D25.png"" style= ""width:200px""alt=""img"">
                                </div>
                            </div>","61","","0","images/D25.png","","","","[""Smooth"",""Rough""]"
"","","","","","html-slider-response","132","406596","0.0-128.0","8js4lu9z18","NaN","<div style=""width:500px;"">
                                <p style=""font-size:50px; font-weight:bold;""
                                ></p>
                                <div style=""width:240px; margin: auto;"">
                                    <img src=""images/D36.png"" style= ""width:200px""alt=""img"">
                                </div>
                            </div>","24","","0","images/D36.png","","","","[""Smooth"",""Rough""]"
"","","","","","html-slider-response","133","410477","0.0-129.0","8js4lu9z18","NaN","<div style=""width:500px;"">
                                <p style=""font-size:50px; font-weight:bold;""
                                ></p>
                                <div style=""width:240px; margin: auto;"">
                                    <img src=""images/D82.png"" style= ""width:200px""alt=""img"">
                                </div>
                            </div>","38","","0","images/D82.png","","","","[""Smooth"",""Rough""]"
"","","","","","html-slider-response","134","412429","0.0-130.0","8js4lu9z18","NaN","<div style=""width:500px;"">
                                <p style=""font-size:50px; font-weight:bold;""
                                ></p>
                                <div style=""width:240px; margin: auto;"">
                                    <img src=""images/D18.png"" style= ""width:200px""alt=""img"">
                                </div>
                            </div>","47","","0","images/D18.png","","","","[""Smooth"",""Rough""]"
"","","","","","html-slider-response","135","414210","0.0-131.0","8js4lu9z18","NaN","<div style=""width:500px;"">
                                <p style=""font-size:50px; font-weight:bold;""
                                ></p>
                                <div style=""width:240px; margin: auto;"">
                                    <img src=""images/D83.png"" style= ""width:200px""alt=""img"">
                                </div>
                            </div>","-74","","0","images/D83.png","","","","[""Smooth"",""Rough""]"
"","","","","","html-slider-response","136","417078","0.0-132.0","8js4lu9z18","NaN","<div style=""width:500px;"">
                                <p style=""font-size:50px; font-weight:bold;""
                                ></p>
                                <div style=""width:240px; margin: auto;"">
                                    <img src=""images/D95.png"" style= ""width:200px""alt=""img"">
                                </div>
                            </div>","-70","","0","images/D95.png","","","","[""Smooth"",""Rough""]"
"","","","","","html-slider-response","137","421596","0.0-133.0","8js4lu9z18","NaN","<div style=""width:500px;"">
                                <p style=""font-size:50px; font-weight:bold;""
                                ></p>
                                <div style=""width:240px; margin: auto;"">
                                    <img src=""images/D48.png"" style= ""width:200px""alt=""img"">
                                </div>
                            </div>","-190","","0","images/D48.png","","","","[""Smooth"",""Rough""]"
"","","","","","html-slider-response","138","423428","0.0-134.0","8js4lu9z18","NaN","<div style=""width:500px;"">
                                <p style=""font-size:50px; font-weight:bold;""
                                ></p>
                                <div style=""width:240px; margin: auto;"">
                                    <img src=""images/D9.png"" style= ""width:200px""alt=""img"">
                                </div>
                            </div>","149","","0","images/D9.png","","","","[""Smooth"",""Rough""]"
"","","","","","html-slider-response","139","424977","0.0-135.0","8js4lu9z18","NaN","<div style=""width:500px;"">
                                <p style=""font-size:50px; font-weight:bold;""
                                ></p>
                                <div style=""width:240px; margin: auto;"">
                                    <img src=""images/D96.png"" style= ""width:200px""alt=""img"">
                                </div>
                            </div>","-63","","0","images/D96.png","","","","[""Smooth"",""Rough""]"
"","","","","","html-slider-response","140","427710","0.0-136.0","8js4lu9z18","NaN","<div style=""width:500px;"">
                                <p style=""font-size:50px; font-weight:bold;""
                                ></p>
                                <div style=""width:240px; margin: auto;"">
                                    <img src=""images/D53.png"" style= ""width:200px""alt=""img"">
                                </div>
                            </div>","-21","","0","images/D53.png","","","","[""Smooth"",""Rough""]"
"","","","","","html-slider-response","141","432360","0.0-137.0","8js4lu9z18","NaN","<div style=""width:500px;"">
                                <p style=""font-size:50px; font-weight:bold;""
                                ></p>
                                <div style=""width:240px; margin: auto;"">
                                    <img src=""images/D16.png"" style= ""width:200px""alt=""img"">
                                </div>
                            </div>","-64","","0","images/D16.png","","","","[""Smooth"",""Rough""]"
"","","","","","html-slider-response","142","438829","0.0-138.0","8js4lu9z18","NaN","<div style=""width:500px;"">
                                <p style=""font-size:50px; font-weight:bold;""
                                ></p>
                                <div style=""width:240px; margin: auto;"">
                                    <img src=""images/D65.png"" style= ""width:200px""alt=""img"">
                                </div>
                            </div>","-42","","0","images/D65.png","","","","[""Smooth"",""Rough""]"
"","","","","","html-slider-response","143","440461","0.0-139.0","8js4lu9z18","NaN","<div style=""width:500px;"">
                                <p style=""font-size:50px; font-weight:bold;""
                                ></p>
                                <div style=""width:240px; margin: auto;"">
                                    <img src=""images/D74.png"" style= ""width:200px""alt=""img"">
                                </div>
                            </div>","-100","","0","images/D74.png","","","","[""Smooth"",""Rough""]"
"","","","","","html-button-response","144","441883","0.0-140.0","8js4lu9z18","918","You have completed the second block of trials out of six. Please click 'Continue' when you are ready proceed.","0","","","","","","",""
"","","","","","html-button-response","145","442817","0.0-141.0","8js4lu9z18","932","In the following trials, you will be asked to rate textures on the scale <b>Stripey</b> versus <b>Blobby</b>. Please click 'Continue' when you are ready proceed.","0","","","","","","",""
"","","","","","html-slider-response","146","444159","0.0-142.0","8js4lu9z18","NaN","<div style=""width:500px;"">
                                <p style=""font-size:50px; font-weight:bold;""
                                ></p>
                                <div style=""width:240px; margin: auto;"">
                                    <img src=""images/D75.png"" style= ""width:200px""alt=""img"">
                                </div>
                            </div>","200","","0","images/D75.png","","","","[""Stripey"",""Blobby""]"
"","","","","","html-slider-response","147","446311","0.0-143.0","8js4lu9z18","NaN","<div style=""width:500px;"">
                                <p style=""font-size:50px; font-weight:bold;""
                                ></p>
                                <div style=""width:240px; margin: auto;"">
                                    <img src=""images/D11.png"" style= ""width:200px""alt=""img"">
                                </div>
                            </div>","-182","","0","images/D11.png","","","","[""Stripey"",""Blobby""]"
"","","","","","html-slider-response","148","448378","0.0-144.0","8js4lu9z18","NaN","<div style=""width:500px;"">
                                <p style=""font-size:50px; font-weight:bold;""
                                ></p>
                                <div style=""width:240px; margin: auto;"">
                                    <img src=""images/D21.png"" style= ""width:200px""alt=""img"">
                                </div>
                            </div>","-107","","0","images/D21.png","","","","[""Stripey"",""Blobby""]"
"","","","","","html-slider-response","149","450013","0.0-145.0","8js4lu9z18","NaN","<div style=""width:500px;"">
                                <p style=""font-size:50px; font-weight:bold;""
                                ></p>
                                <div style=""width:240px; margin: auto;"">
                                    <img src=""images/D53.png"" style= ""width:200px""alt=""img"">
                                </div>
                            </div>","154","","0","images/D53.png","","","","[""Stripey"",""Blobby""]"
"","","","","","html-slider-response","150","451643","0.0-146.0","8js4lu9z18","NaN","<div style=""width:500px;"">
                                <p style=""font-size:50px; font-weight:bold;""
                                ></p>
                                <div style=""width:240px; margin: auto;"">
                                    <img src=""images/D74.png"" style= ""width:200px""alt=""img"">
                                </div>
                            </div>","164","","0","images/D74.png","","","","[""Stripey"",""Blobby""]"
"","","","","","html-slider-response","151","453292","0.0-147.0","8js4lu9z18","NaN","<div style=""width:500px;"">
                                <p style=""font-size:50px; font-weight:bold;""
                                ></p>
                                <div style=""width:240px; margin: auto;"">
                                    <img src=""images/D87.png"" style= ""width:200px""alt=""img"">
                                </div>
                            </div>","200","","0","images/D87.png","","","","[""Stripey"",""Blobby""]"
"","","","","","html-slider-response","152","458443","0.0-148.0","8js4lu9z18","NaN","<div style=""width:500px;"">
                                <p style=""font-size:50px; font-weight:bold;""
                                ></p>
                                <div style=""width:240px; margin: auto;"">
                                    <img src=""images/D84.png"" style= ""width:200px""alt=""img"">
                                </div>
                            </div>","-53","","0","images/D84.png","","","","[""Stripey"",""Blobby""]"
"","","","","","html-slider-response","153","460327","0.0-149.0","8js4lu9z18","NaN","<div style=""width:500px;"">
                                <p style=""font-size:50px; font-weight:bold;""
                                ></p>
                                <div style=""width:240px; margin: auto;"">
                                    <img src=""images/D26.png"" style= ""width:200px""alt=""img"">
                                </div>
                            </div>","-128","","0","images/D26.png","","","","[""Stripey"",""Blobby""]"
"","","","","","html-slider-response","154","462012","0.0-150.0","8js4lu9z18","NaN","<div style=""width:500px;"">
                                <p style=""font-size:50px; font-weight:bold;""
                                ></p>
                                <div style=""width:240px; margin: auto;"">
                                    <img src=""images/D4.png"" style= ""width:200px""alt=""img"">
                                </div>
                            </div>","40","","0","images/D4.png","","","","[""Stripey"",""Blobby""]"
"","","","","","html-slider-response","155","467846","0.0-151.0","8js4lu9z18","NaN","<div style=""width:500px;"">
                                <p style=""font-size:50px; font-weight:bold;""
                                ></p>
                                <div style=""width:240px; margin: auto;"">
                                    <img src=""images/D101.png"" style= ""width:200px""alt=""img"">
                                </div>
                            </div>","101","","0","images/D101.png","","","","[""Stripey"",""Blobby""]"
"","","","","","html-slider-response","156","469779","0.0-152.0","8js4lu9z18","NaN","<div style=""width:500px;"">
                                <p style=""font-size:50px; font-weight:bold;""
                                ></p>
                                <div style=""width:240px; margin: auto;"">
                                    <img src=""images/D47.png"" style= ""width:200px""alt=""img"">
                                </div>
                            </div>","-161","","0","images/D47.png","","","","[""Stripey"",""Blobby""]"
"","","","","","html-slider-response","157","471795","0.0-153.0","8js4lu9z18","NaN","<div style=""width:500px;"">
                                <p style=""font-size:50px; font-weight:bold;""
                                ></p>
                                <div style=""width:240px; margin: auto;"">
                                    <img src=""images/D76.png"" style= ""width:200px""alt=""img"">
                                </div>
                            </div>","-130","","0","images/D76.png","","","","[""Stripey"",""Blobby""]"
"","","","","","html-slider-response","158","475177","0.0-154.0","8js4lu9z18","NaN","<div style=""width:500px;"">
                                <p style=""font-size:50px; font-weight:bold;""
                                ></p>
                                <div style=""width:240px; margin: auto;"">
                                    <img src=""images/D77.png"" style= ""width:200px""alt=""img"">
                                </div>
                            </div>","-140","","0","images/D77.png","","","","[""Stripey"",""Blobby""]"
"","","","","","html-slider-response","159","477626","0.0-155.0","8js4lu9z18","NaN","<div style=""width:500px;"">
                                <p style=""font-size:50px; font-weight:bold;""
                                ></p>
                                <div style=""width:240px; margin: auto;"">
                                    <img src=""images/D56.png"" style= ""width:200px""alt=""img"">
                                </div>
                            </div>","116","","0","images/D56.png","","","","[""Stripey"",""Blobby""]"
"","","","","","html-slider-response","160","479712","0.0-156.0","8js4lu9z18","NaN","<div style=""width:500px;"">
                                <p style=""font-size:50px; font-weight:bold;""
                                ></p>
                                <div style=""width:240px; margin: auto;"">
                                    <img src=""images/D83.png"" style= ""width:200px""alt=""img"">
                                </div>
                            </div>","78","","0","images/D83.png","","","","[""Stripey"",""Blobby""]"
"","","","","","html-slider-response","161","482910","0.0-157.0","8js4lu9z18","NaN","<div style=""width:500px;"">
                                <p style=""font-size:50px; font-weight:bold;""
                                ></p>
                                <div style=""width:240px; margin: auto;"">
                                    <img src=""images/D64.png"" style= ""width:200px""alt=""img"">
                                </div>
                            </div>","-78","","0","images/D64.png","","","","[""Stripey"",""Blobby""]"
"","","","","","html-slider-response","162","484793","0.0-158.0","8js4lu9z18","NaN","<div style=""width:500px;"">
                                <p style=""font-size:50px; font-weight:bold;""
                                ></p>
                                <div style=""width:240px; margin: auto;"">
                                    <img src=""images/D105.png"" style= ""width:200px""alt=""img"">
                                </div>
                            </div>","-174","","0","images/D105.png","","","","[""Stripey"",""Blobby""]"
"","","","","","html-slider-response","163","486793","0.0-159.0","8js4lu9z18","NaN","<div style=""width:500px;"">
                                <p style=""font-size:50px; font-weight:bold;""
                                ></p>
                                <div style=""width:240px; margin: auto;"">
                                    <img src=""images/D17.png"" style= ""width:200px""alt=""img"">
                                </div>
                            </div>","-163","","0","images/D17.png","","","","[""Stripey"",""Blobby""]"
"","","","","","html-slider-response","164","489060","0.0-160.0","8js4lu9z18","NaN","<div style=""width:500px;"">
                                <p style=""font-size:50px; font-weight:bold;""
                                ></p>
                                <div style=""width:240px; margin: auto;"">
                                    <img src=""images/D9.png"" style= ""width:200px""alt=""img"">
                                </div>
                            </div>","177","","0","images/D9.png","","","","[""Stripey"",""Blobby""]"
"","","","","","html-slider-response","165","491176","0.0-161.0","8js4lu9z18","NaN","<div style=""width:500px;"">
                                <p style=""font-size:50px; font-weight:bold;""
                                ></p>
                                <div style=""width:240px; margin: auto;"">
                                    <img src=""images/D19.png"" style= ""width:200px""alt=""img"">
                                </div>
                            </div>","168","","0","images/D19.png","","","","[""Stripey"",""Blobby""]"
"","","","","","html-slider-response","166","494194","0.0-162.0","8js4lu9z18","NaN","<div style=""width:500px;"">
                                <p style=""font-size:50px; font-weight:bold;""
                                ></p>
                                <div style=""width:240px; margin: auto;"">
                                    <img src=""images/D46.png"" style= ""width:200px""alt=""img"">
                                </div>
                            </div>","-54","","0","images/D46.png","","","","[""Stripey"",""Blobby""]"
"","","","","","html-slider-response","167","496111","0.0-163.0","8js4lu9z18","NaN","<div style=""width:500px;"">
                                <p style=""font-size:50px; font-weight:bold;""
                                ></p>
                                <div style=""width:240px; margin: auto;"">
                                    <img src=""images/D95.png"" style= ""width:200px""alt=""img"">
                                </div>
                            </div>","-162","","0","images/D95.png","","","","[""Stripey"",""Blobby""]"
"","","","","","html-slider-response","168","498227","0.0-164.0","8js4lu9z18","NaN","<div style=""width:500px;"">
                                <p style=""font-size:50px; font-weight:bold;""
                                ></p>
                                <div style=""width:240px; margin: auto;"">
                                    <img src=""images/D94.png"" style= ""width:200px""alt=""img"">
                                </div>
                            </div>","-78","","0","images/D94.png","","","","[""Stripey"",""Blobby""]"
"","","","","","html-slider-response","169","500493","0.0-165.0","8js4lu9z18","NaN","<div style=""width:500px;"">
                                <p style=""font-size:50px; font-weight:bold;""
                                ></p>
                                <div style=""width:240px; margin: auto;"">
                                    <img src=""images/D6.png"" style= ""width:200px""alt=""img"">
                                </div>
                            </div>","157","","0","images/D6.png","","","","[""Stripey"",""Blobby""]"
"","","","","","html-slider-response","170","502861","0.0-166.0","8js4lu9z18","NaN","<div style=""width:500px;"">
                                <p style=""font-size:50px; font-weight:bold;""
                                ></p>
                                <div style=""width:240px; margin: auto;"">
                                    <img src=""images/D20.png"" style= ""width:200px""alt=""img"">
                                </div>
                            </div>","126","","0","images/D20.png","","","","[""Stripey"",""Blobby""]"
"","","","","","html-slider-response","171","505960","0.0-167.0","8js4lu9z18","NaN","<div style=""width:500px;"">
                                <p style=""font-size:50px; font-weight:bold;""
                                ></p>
                                <div style=""width:240px; margin: auto;"">
                                    <img src=""images/D102.png"" style= ""width:200px""alt=""img"">
                                </div>
                            </div>","153","","0","images/D102.png","","","","[""Stripey"",""Blobby""]"
"","","","","","html-slider-response","172","508160","0.0-168.0","8js4lu9z18","NaN","<div style=""width:500px;"">
                                <p style=""font-size:50px; font-weight:bold;""
                                ></p>
                                <div style=""width:240px; margin: auto;"">
                                    <img src=""images/D52.png"" style= ""width:200px""alt=""img"">
                                </div>
                            </div>","-53","","0","images/D52.png","","","","[""Stripey"",""Blobby""]"
"","","","","","html-slider-response","173","510144","0.0-169.0","8js4lu9z18","NaN","<div style=""width:500px;"">
                                <p style=""font-size:50px; font-weight:bold;""
                                ></p>
                                <div style=""width:240px; margin: auto;"">
                                    <img src=""images/D35.png"" style= ""width:200px""alt=""img"">
                                </div>
                            </div>","36","","0","images/D35.png","","","","[""Stripey"",""Blobby""]"
"","","","","","html-slider-response","174","512060","0.0-170.0","8js4lu9z18","NaN","<div style=""width:500px;"">
                                <p style=""font-size:50px; font-weight:bold;""
                                ></p>
                                <div style=""width:240px; margin: auto;"">
                                    <img src=""images/D92.png"" style= ""width:200px""alt=""img"">
                                </div>
                            </div>","166","","0","images/D92.png","","","","[""Stripey"",""Blobby""]"
"","","","","","html-slider-response","175","514760","0.0-171.0","8js4lu9z18","NaN","<div style=""width:500px;"">
                                <p style=""font-size:50px; font-weight:bold;""
                                ></p>
                                <div style=""width:240px; margin: auto;"">
                                    <img src=""images/D25.png"" style= ""width:200px""alt=""img"">
                                </div>
                            </div>","-174","","0","images/D25.png","","","","[""Stripey"",""Blobby""]"
"","","","","","html-slider-response","176","516828","0.0-172.0","8js4lu9z18","NaN","<div style=""width:500px;"">
                                <p style=""font-size:50px; font-weight:bold;""
                                ></p>
                                <div style=""width:240px; margin: auto;"">
                                    <img src=""images/D78.png"" style= ""width:200px""alt=""img"">
                                </div>
                            </div>","-200","","0","images/D78.png","","","","[""Stripey"",""Blobby""]"
"","","","","","html-slider-response","177","518876","0.0-173.0","8js4lu9z18","NaN","<div style=""width:500px;"">
                                <p style=""font-size:50px; font-weight:bold;""
                                ></p>
                                <div style=""width:240px; margin: auto;"">
                                    <img src=""images/D103.png"" style= ""width:200px""alt=""img"">
                                </div>
                            </div>","-134","","0","images/D103.png","","","","[""Stripey"",""Blobby""]"
"","","","","","html-slider-response","178","520646","0.0-174.0","8js4lu9z18","NaN","<div style=""width:500px;"">
                                <p style=""font-size:50px; font-weight:bold;""
                                ></p>
                                <div style=""width:240px; margin: auto;"">
                                    <img src=""images/D36.png"" style= ""width:200px""alt=""img"">
                                </div>
                            </div>","73","","0","images/D36.png","","","","[""Stripey"",""Blobby""]"
"","","","","","html-slider-response","179","523143","0.0-175.0","8js4lu9z18","NaN","<div style=""width:500px;"">
                                <p style=""font-size:50px; font-weight:bold;""
                                ></p>
                                <div style=""width:240px; margin: auto;"">
                                    <img src=""images/D55.png"" style= ""width:200px""alt=""img"">
                                </div>
                            </div>","-166","","0","images/D55.png","","","","[""Stripey"",""Blobby""]"
"","","","","","html-slider-response","180","524980","0.0-176.0","8js4lu9z18","NaN","<div style=""width:500px;"">
                                <p style=""font-size:50px; font-weight:bold;""
                                ></p>
                                <div style=""width:240px; margin: auto;"">
                                    <img src=""images/D81.png"" style= ""width:200px""alt=""img"">
                                </div>
                            </div>","200","","0","images/D81.png","","","","[""Stripey"",""Blobby""]"
"","","","","","html-slider-response","181","526944","0.0-177.0","8js4lu9z18","NaN","<div style=""width:500px;"">
                                <p style=""font-size:50px; font-weight:bold;""
                                ></p>
                                <div style=""width:240px; margin: auto;"">
                                    <img src=""images/D111.png"" style= ""width:200px""alt=""img"">
                                </div>
                            </div>","200","","0","images/D111.png","","","","[""Stripey"",""Blobby""]"
"","","","","","html-slider-response","182","529095","0.0-178.0","8js4lu9z18","NaN","<div style=""width:500px;"">
                                <p style=""font-size:50px; font-weight:bold;""
                                ></p>
                                <div style=""width:240px; margin: auto;"">
                                    <img src=""images/D29.png"" style= ""width:200px""alt=""img"">
                                </div>
                            </div>","154","","0","images/D29.png","","","","[""Stripey"",""Blobby""]"
"","","","","","html-slider-response","183","531111","0.0-179.0","8js4lu9z18","NaN","<div style=""width:500px;"">
                                <p style=""font-size:50px; font-weight:bold;""
                                ></p>
                                <div style=""width:240px; margin: auto;"">
                                    <img src=""images/D68.png"" style= ""width:200px""alt=""img"">
                                </div>
                            </div>","-162","","0","images/D68.png","","","","[""Stripey"",""Blobby""]"
"","","","","","html-slider-response","184","533260","0.0-180.0","8js4lu9z18","NaN","<div style=""width:500px;"">
                                <p style=""font-size:50px; font-weight:bold;""
                                ></p>
                                <div style=""width:240px; margin: auto;"">
                                    <img src=""images/D66.png"" style= ""width:200px""alt=""img"">
                                </div>
                            </div>","200","","0","images/D66.png","","","","[""Stripey"",""Blobby""]"
"","","","","","html-slider-response","185","535478","0.0-181.0","8js4lu9z18","NaN","<div style=""width:500px;"">
                                <p style=""font-size:50px; font-weight:bold;""
                                ></p>
                                <div style=""width:240px; margin: auto;"">
                                    <img src=""images/D24.png"" style= ""width:200px""alt=""img"">
                                </div>
                            </div>","128","","0","images/D24.png","","","","[""Stripey"",""Blobby""]"
"","","","","","html-slider-response","186","536861","0.0-182.0","8js4lu9z18","NaN","<div style=""width:500px;"">
                                <p style=""font-size:50px; font-weight:bold;""
                                ></p>
                                <div style=""width:240px; margin: auto;"">
                                    <img src=""images/D34.png"" style= ""width:200px""alt=""img"">
                                </div>
                            </div>","-10","","0","images/D34.png","","","","[""Stripey"",""Blobby""]"
"","","","","","html-slider-response","187","539494","0.0-183.0","8js4lu9z18","NaN","<div style=""width:500px;"">
                                <p style=""font-size:50px; font-weight:bold;""
                                ></p>
                                <div style=""width:240px; margin: auto;"">
                                    <img src=""images/D80.png"" style= ""width:200px""alt=""img"">
                                </div>
