"success","timeout","failed_images","failed_audio","failed_video","trial_type","trial_index","time_elapsed","internal_node_id","subject_id","rt","stimulus","response","question_order","slider_start","image_path","practiceTrial","practiceTrialNum","correct","slider_labels"
"true","false","[]","[]","[]","preload","0","385","0.0-0.0","988f8j1jxg","","","","","","","","","",""
"","","","","","html-button-response","1","6770","0.0-1.0","988f8j1jxg","6384","<div style='text-align:center; font-size:20px; line-height:25px; width: 1200px;'>
                Welcome to our experiment! <br>
                <br>At the bottom of this screen, you will see a button that says 'Begin Experiment.
                <br>Please only click that button when you are ready to complete the 25 minute experiment in one sitting. <br>
                <br> Once you click that button, it will not be possible to restart the experiment. <br><br>","0","","","","","","",""
"true","","","","","fullscreen","2","10184","0.0-2.0","988f8j1jxg","2407","","","","","","","","",""
"","","","","","survey-multi-select","3","87075","0.0-3.0","988f8j1jxg","76889","","{""Consent"":[""<strong>I consent</strong>""]}","[0]","","","","","",""
"","","","","","html-button-response","4","92160","0.0-4.0","988f8j1jxg","5083","Welcome! <p> This experiment involves two parts: demographic information, followed by the experimental task.<p> It will take about 25 minutes to complete both parts.","0","","","","","","",""
"","","","","","survey-text","5","99438","0.0-5.0","988f8j1jxg","7276","","{""Age"":""18"",""Gender"":""Female"",""Race/ethnicity"":""White""}","","","","","","",""
"","","","","","html-slider-response","6","149467","0.0-6.0","988f8j1jxg","50027","
                <div style='text-align:center; height: auto; margin-left=-100px; margin-bottom: -20px; font-size:20px; line-height:5px; width: 1200px;'>
                    <br>During this experiment, you will see a series of textures, one at a time, like the ones below: 
                </div>
                    <br>
                    <br>
                    <img src=""anchoring_visual_textures.png"" alt=""img"" style=""max-width:1200px; margin-left: -10px;"">
                </div>
                <div style=""clear: both;""></div>
                </div>
                    <div style='text-align:center; margin-left=-100px; font-size:20px; line-height:20px; width: 1200px; margin-top: -50px;'>
                    
                    <br> For each texture, you will be asked to rate where you think it falls on each of the response scales with the following endpoints:
                    </div>
                            <div style=""text-align: center; width: 1400px; "">
                                <p style=""font-size:20px; line-height:5px; ""><b>Blobby</b> versus <b>Stripey</b></p>
                                <p style=""font-size:20px; line-height:5px; ""><b>Rounded</b> versus <b>Rectangular</b></p>
                                <p style=""font-size:20px;line-height:5px;""><b>Coarse</b> versus <b>Fine</b></p>
                                <p style=""font-size:20px;line-height:5px; ""><b>Rough</b> versus <b>Smooth</b></p>
                                <p style=""font-size:20px;line-height:5px; ""><b>Random</b> versus <b>Non-Random</b></p>
                                <p style=""font-size:20px;line-height:5px;""><b>Hard</b> versus <b>Soft</b></p>
                            </div>
                            <div style='text-align:center; font-size:20px; line-height:20px; width: 1400px;'>
                    
                    Each trial will include one texture and one response scale. You will be asked to make your rating by sliding the cursor along a slider response scale like the one below.
                    <br><br> Before beginning, please look at the textures and scales. For each scale, think about the texture you associate most with the left endpoint. When you see that texture for that response scale, please click near the left of the scale.
                    <br><br> Now, please think about the texture you associate most with the right endpoint of each scale. When you see that texture for that response scale, please click near the right of the scale. 
                    <br><br> If you think a texture is not strongly associated with either endpoint of the scale, please click near the midpoint of the scale. Please use the full range of the scale. 
                    <br><br> You will be asked to rate each texture for a given scale before moving on to the next scale.
                    <br><br> Please press the 'Continue' button for instructions on how to use the slider.                     <br><br>
                ","null","","0","visual_textures_anchoring.png","true","","",""
"","","","","","html-button-response","7","165400","0.0-7.0","988f8j1jxg","15933","<div style=""width:1200px; margin-top:-150px;""><p style=""text-align:center; font-size:24px;"">To move the slider, click and drag your cursor to the location of the scale where you would like to make your rating and then let go. <br><br> When you let go of the slider, your response will be recorded and the next trial will begin. <br><br><br>
                We are interested in your initial impressions of each texture and scale, so please go with your first intuition. <br><br>
                Before you begin the experiment, there will be four training trials for you to practice using the scale. <br><br><br><br></div>
                <div style=""width:1200px;""><p style=""text-align:center; font-size:20px;"">When you are ready to start the training trials, please click ""Continue"".</p></div>","0","","","","","","",""
"","","","","","html-slider-response","8","169568","0.0-8.0-0.0","988f8j1jxg","NaN","<div style=""width:500px;"">
                                <p style=""font-size:25px;"">Please move the slider all the way to the <br> right endpoint of the scale</p>

                                </div>
                            </div>","200","","0","","true","0","true",""
"","","","","","html-button-response","9","171098","0.0-8.0-1.0","988f8j1jxg","1025","<p align='center'><b>Good job!</b> Click on 'Continue' to proceed.</p>","0","","","","","","",""
"","","","","","html-slider-response","10","174052","0.0-9.0-0.0","988f8j1jxg","NaN","<div style=""width:500px;"">
                                <p style=""font-size:25px;"">Please move the slider all the way to the <br> left endpoint of the scale</p>

                                </div>
                            </div>","-200","","0","","true","1","true",""
"","","","","","html-button-response","11","175382","0.0-9.0-1.0","988f8j1jxg","826","<p align='center'><b>Good job!</b> Click on 'Continue' to proceed.</p>","0","","","","","","",""
"","","","","","html-slider-response","12","180979","0.0-10.0-0.0","988f8j1jxg","NaN","<div style=""width:500px;"">
                                <p style=""font-size:25px;"">Please move the slider halfway between the center and right endpoint of the scale</p>

                                </div>
                            </div>","106","","0","","true","2","true",""
"","","","","","html-button-response","13","182301","0.0-10.0-1.0","988f8j1jxg","820","<p align='center'><b>Good job!</b> Click on 'Continue' to proceed.</p>","0","","","","","","",""
"","","","","","html-slider-response","14","185045","0.0-11.0-0.0","988f8j1jxg","NaN","<div style=""width:500px;"">
                                <p style=""font-size:25px;"">Please move the slider halfway between the center and left endpoint of the scale</p>

                                </div>
                            </div>","-103","","0","","true","3","true",""
"","","","","","html-button-response","15","186399","0.0-11.0-1.0","988f8j1jxg","854","<p align='center'><b>Good job!</b> Click on 'Continue' to proceed.</p>","0","","","","","","",""
"","","","","","html-button-response","16","189269","0.0-12.0","988f8j1jxg","2869","<div style=""width:800px; margin-top:-300px;""><p style=""text-align:center; font-size:22px; line-height:25px;""""> Great job! You've completed the practice trials.</div>
                     <div style=""width:800px; margin-top:-20px;""><p style=""text-align:center""><br><br> In the following trials, you will be asked to rate textures on each scale one-by-one. <br> You will be given opportunities to take breaks when you have completed each block of trials. There are six total blocks of trials. <br><br> Please click continue to begin the main task.<br><br><br> </div>","0","","","","","","",""
"","","","","","html-button-response","17","195300","0.0-13.0","988f8j1jxg","6029","In the following trials, you will be asked to rate textures on the scale <b>Hard</b> versus <b>Soft</b>. Please click 'Continue' when you are ready proceed.","0","","","","","","",""
"","","","","","html-slider-response","18","198277","0.0-14.0","988f8j1jxg","NaN","<div style=""width:500px;"">
                                <p style=""font-size:50px; font-weight:bold;""
                                ></p>
                                <div style=""width:240px; margin: auto;"">
                                    <img src=""images/D17.png"" style= ""width:200px""alt=""img"">
                                </div>
                            </div>","58","","0","images/D17.png","","","","[""Hard"",""Soft""]"
"","","","","","html-slider-response","19","200541","0.0-15.0","988f8j1jxg","NaN","<div style=""width:500px;"">
                                <p style=""font-size:50px; font-weight:bold;""
                                ></p>
                                <div style=""width:240px; margin: auto;"">
                                    <img src=""images/D105.png"" style= ""width:200px""alt=""img"">
                                </div>
                            </div>","-22","","0","images/D105.png","","","","[""Hard"",""Soft""]"
"","","","","","html-slider-response","20","202932","0.0-16.0","988f8j1jxg","NaN","<div style=""width:500px;"">
                                <p style=""font-size:50px; font-weight:bold;""
                                ></p>
                                <div style=""width:240px; margin: auto;"">
                                    <img src=""images/D47.png"" style= ""width:200px""alt=""img"">
                                </div>
                            </div>","-104","","0","images/D47.png","","","","[""Hard"",""Soft""]"
"","","","","","html-slider-response","21","205358","0.0-17.0","988f8j1jxg","NaN","<div style=""width:500px;"">
                                <p style=""font-size:50px; font-weight:bold;""
                                ></p>
                                <div style=""width:240px; margin: auto;"">
                                    <img src=""images/D24.png"" style= ""width:200px""alt=""img"">
                                </div>
                            </div>","42","","0","images/D24.png","","","","[""Hard"",""Soft""]"
"","","","","","html-slider-response","22","207716","0.0-18.0","988f8j1jxg","NaN","<div style=""width:500px;"">
                                <p style=""font-size:50px; font-weight:bold;""
                                ></p>
                                <div style=""width:240px; margin: auto;"">
                                    <img src=""images/D64.png"" style= ""width:200px""alt=""img"">
                                </div>
                            </div>","-140","","0","images/D64.png","","","","[""Hard"",""Soft""]"
"","","","","","html-slider-response","23","210077","0.0-19.0","988f8j1jxg","NaN","<div style=""width:500px;"">
                                <p style=""font-size:50px; font-weight:bold;""
                                ></p>
                                <div style=""width:240px; margin: auto;"">
                                    <img src=""images/D36.png"" style= ""width:200px""alt=""img"">
                                </div>
                            </div>","47","","0","images/D36.png","","","","[""Hard"",""Soft""]"
"","","","","","html-slider-response","24","212172","0.0-20.0","988f8j1jxg","NaN","<div style=""width:500px;"">
                                <p style=""font-size:50px; font-weight:bold;""
                                ></p>
                                <div style=""width:240px; margin: auto;"">
                                    <img src=""images/D77.png"" style= ""width:200px""alt=""img"">
                                </div>
                            </div>","158","","0","images/D77.png","","","","[""Hard"",""Soft""]"
"","","","","","html-slider-response","25","215906","0.0-21.0","988f8j1jxg","NaN","<div style=""width:500px;"">
                                <p style=""font-size:50px; font-weight:bold;""
                                ></p>
                                <div style=""width:240px; margin: auto;"">
                                    <img src=""images/D57.png"" style= ""width:200px""alt=""img"">
                                </div>
                            </div>","-28","","0","images/D57.png","","","","[""Hard"",""Soft""]"
"","","","","","html-slider-response","26","218095","0.0-22.0","988f8j1jxg","NaN","<div style=""width:500px;"">
                                <p style=""font-size:50px; font-weight:bold;""
                                ></p>
                                <div style=""width:240px; margin: auto;"">
                                    <img src=""images/D11.png"" style= ""width:200px""alt=""img"">
                                </div>
                            </div>","-110","","0","images/D11.png","","","","[""Hard"",""Soft""]"
"","","","","","html-slider-response","27","220132","0.0-23.0","988f8j1jxg","NaN","<div style=""width:500px;"">
                                <p style=""font-size:50px; font-weight:bold;""
                                ></p>
                                <div style=""width:240px; margin: auto;"">
                                    <img src=""images/D76.png"" style= ""width:200px""alt=""img"">
                                </div>
                            </div>","-134","","0","images/D76.png","","","","[""Hard"",""Soft""]"
"","","","","","html-slider-response","28","222574","0.0-24.0","988f8j1jxg","NaN","<div style=""width:500px;"">
                                <p style=""font-size:50px; font-weight:bold;""
                                ></p>
                                <div style=""width:240px; margin: auto;"">
                                    <img src=""images/D95.png"" style= ""width:200px""alt=""img"">
                                </div>
                            </div>","-183","","0","images/D95.png","","","","[""Hard"",""Soft""]"
"","","","","","html-slider-response","29","225444","0.0-25.0","988f8j1jxg","NaN","<div style=""width:500px;"">
                                <p style=""font-size:50px; font-weight:bold;""
                                ></p>
                                <div style=""width:240px; margin: auto;"">
                                    <img src=""images/D74.png"" style= ""width:200px""alt=""img"">
                                </div>
                            </div>","-126","","0","images/D74.png","","","","[""Hard"",""Soft""]"
"","","","","","html-slider-response","30","227925","0.0-26.0","988f8j1jxg","NaN","<div style=""width:500px;"">
                                <p style=""font-size:50px; font-weight:bold;""
                                ></p>
                                <div style=""width:240px; margin: auto;"">
                                    <img src=""images/D25.png"" style= ""width:200px""alt=""img"">
                                </div>
                            </div>","-186","","0","images/D25.png","","","","[""Hard"",""Soft""]"
"","","","","","html-slider-response","31","230156","0.0-27.0","988f8j1jxg","NaN","<div style=""width:500px;"">
                                <p style=""font-size:50px; font-weight:bold;""
                                ></p>
                                <div style=""width:240px; margin: auto;"">
                                    <img src=""images/D51.png"" style= ""width:200px""alt=""img"">
                                </div>
                            </div>","-46","","0","images/D51.png","","","","[""Hard"",""Soft""]"
"","","","","","html-slider-response","32","231950","0.0-28.0","988f8j1jxg","NaN","<div style=""width:500px;"">
                                <p style=""font-size:50px; font-weight:bold;""
                                ></p>
                                <div style=""width:240px; margin: auto;"">
                                    <img src=""images/D35.png"" style= ""width:200px""alt=""img"">
                                </div>
                            </div>","40","","0","images/D35.png","","","","[""Hard"",""Soft""]"
"","","","","","html-slider-response","33","234149","0.0-29.0","988f8j1jxg","NaN","<div style=""width:500px;"">
                                <p style=""font-size:50px; font-weight:bold;""
                                ></p>
                                <div style=""width:240px; margin: auto;"">
                                    <img src=""images/D4.png"" style= ""width:200px""alt=""img"">
                                </div>
                            </div>","181","","0","images/D4.png","","","","[""Hard"",""Soft""]"
"","","","","","html-slider-response","34","237456","0.0-30.0","988f8j1jxg","NaN","<div style=""width:500px;"">
                                <p style=""font-size:50px; font-weight:bold;""
                                ></p>
                                <div style=""width:240px; margin: auto;"">
                                    <img src=""images/D19.png"" style= ""width:200px""alt=""img"">
                                </div>
                            </div>","89","","0","images/D19.png","","","","[""Hard"",""Soft""]"
"","","","","","html-slider-response","35","239500","0.0-31.0","988f8j1jxg","NaN","<div style=""width:500px;"">
                                <p style=""font-size:50px; font-weight:bold;""
                                ></p>
                                <div style=""width:240px; margin: auto;"">
                                    <img src=""images/D48.png"" style= ""width:200px""alt=""img"">
                                </div>
                            </div>","-152","","0","images/D48.png","","","","[""Hard"",""Soft""]"
"","","","","","html-slider-response","36","241543","0.0-32.0","988f8j1jxg","NaN","<div style=""width:500px;"">
                                <p style=""font-size:50px; font-weight:bold;""
                                ></p>
                                <div style=""width:240px; margin: auto;"">
                                    <img src=""images/D3.png"" style= ""width:200px""alt=""img"">
                                </div>
                            </div>","58","","0","images/D3.png","","","","[""Hard"",""Soft""]"
"","","","","","html-slider-response","37","243621","0.0-33.0","988f8j1jxg","NaN","<div style=""width:500px;"">
                                <p style=""font-size:50px; font-weight:bold;""
                                ></p>
                                <div style=""width:240px; margin: auto;"">
                                    <img src=""images/D96.png"" style= ""width:200px""alt=""img"">
                                </div>
                            </div>","-164","","0","images/D96.png","","","","[""Hard"",""Soft""]"
"","","","","","html-slider-response","38","245973","0.0-34.0","988f8j1jxg","NaN","<div style=""width:500px;"">
                                <p style=""font-size:50px; font-weight:bold;""
                                ></p>
                                <div style=""width:240px; margin: auto;"">
                                    <img src=""images/D8.png"" style= ""width:200px""alt=""img"">
                                </div>
                            </div>","-89","","0","images/D8.png","","","","[""Hard"",""Soft""]"
"","","","","","html-slider-response","39","248480","0.0-35.0","988f8j1jxg","NaN","<div style=""width:500px;"">
                                <p style=""font-size:50px; font-weight:bold;""
                                ></p>
                                <div style=""width:240px; margin: auto;"">
                                    <img src=""images/D32.png"" style= ""width:200px""alt=""img"">
                                </div>
                            </div>","173","","0","images/D32.png","","","","[""Hard"",""Soft""]"
"","","","","","html-slider-response","40","251011","0.0-36.0","988f8j1jxg","NaN","<div style=""width:500px;"">
                                <p style=""font-size:50px; font-weight:bold;""
                                ></p>
                                <div style=""width:240px; margin: auto;"">
                                    <img src=""images/D94.png"" style= ""width:200px""alt=""img"">
                                </div>
                            </div>","-161","","0","images/D94.png","","","","[""Hard"",""Soft""]"
"","","","","","html-slider-response","41","253943","0.0-37.0","988f8j1jxg","NaN","<div style=""width:500px;"">
                                <p style=""font-size:50px; font-weight:bold;""
                                ></p>
                                <div style=""width:240px; margin: auto;"">
                                    <img src=""images/D75.png"" style= ""width:200px""alt=""img"">
                                </div>
                            </div>","30","","0","images/D75.png","","","","[""Hard"",""Soft""]"
"","","","","","html-slider-response","42","256410","0.0-38.0","988f8j1jxg","NaN","<div style=""width:500px;"">
                                <p style=""font-size:50px; font-weight:bold;""
                                ></p>
                                <div style=""width:240px; margin: auto;"">
                                    <img src=""images/D106.png"" style= ""width:200px""alt=""img"">
                                </div>
                            </div>","57","","0","images/D106.png","","","","[""Hard"",""Soft""]"
"","","","","","html-slider-response","43","258243","0.0-39.0","988f8j1jxg","NaN","<div style=""width:500px;"">
                                <p style=""font-size:50px; font-weight:bold;""
                                ></p>
                                <div style=""width:240px; margin: auto;"">
                                    <img src=""images/D1.png"" style= ""width:200px""alt=""img"">
                                </div>
                            </div>","-139","","0","images/D1.png","","","","[""Hard"",""Soft""]"
"","","","","","html-slider-response","44","260490","0.0-40.0","988f8j1jxg","NaN","<div style=""width:500px;"">
                                <p style=""font-size:50px; font-weight:bold;""
                                ></p>
                                <div style=""width:240px; margin: auto;"">
                                    <img src=""images/D92.png"" style= ""width:200px""alt=""img"">
                                </div>
                            </div>","120","","0","images/D92.png","","","","[""Hard"",""Soft""]"
"","","","","","html-slider-response","45","262771","0.0-41.0","988f8j1jxg","NaN","<div style=""width:500px;"">
                                <p style=""font-size:50px; font-weight:bold;""
                                ></p>
                                <div style=""width:240px; margin: auto;"">
                                    <img src=""images/D87.png"" style= ""width:200px""alt=""img"">
                                </div>
                            </div>","136","","0","images/D87.png","","","","[""Hard"",""Soft""]"
"","","","","","html-slider-response","46","264847","0.0-42.0","988f8j1jxg","NaN","<div style=""width:500px;"">
                                <p style=""font-size:50px; font-weight:bold;""
                                ></p>
                                <div style=""width:240px; margin: auto;"">
                                    <img src=""images/D18.png"" style= ""width:200px""alt=""img"">
                                </div>
                            </div>","-78","","0","images/D18.png","","","","[""Hard"",""Soft""]"
"","","","","","html-slider-response","47","267872","0.0-43.0","988f8j1jxg","NaN","<div style=""width:500px;"">
                                <p style=""font-size:50px; font-weight:bold;""
                                ></p>
                                <div style=""width:240px; margin: auto;"">
                                    <img src=""images/D101.png"" style= ""width:200px""alt=""img"">
                                </div>
                            </div>","-40","","0","images/D101.png","","","","[""Hard"",""Soft""]"
"","","","","","html-slider-response","48","270354","0.0-44.0","988f8j1jxg","NaN","<div style=""width:500px;"">
                                <p style=""font-size:50px; font-weight:bold;""
                                ></p>
                                <div style=""width:240px; margin: auto;"">
                                    <img src=""images/D37.png"" style= ""width:200px""alt=""img"">
                                </div>
                            </div>","-75","","0","images/D37.png","","","","[""Hard"",""Soft""]"
"","","","","","html-slider-response","49","272308","0.0-45.0","988f8j1jxg","NaN","<div style=""width:500px;"">
                                <p style=""font-size:50px; font-weight:bold;""
                                ></p>
                                <div style=""width:240px; margin: auto;"">
                                    <img src=""images/D56.png"" style= ""width:200px""alt=""img"">
                                </div>
                            </div>","-120","","0","images/D56.png","","","","[""Hard"",""Soft""]"
"","","","","","html-slider-response","50","274500","0.0-46.0","988f8j1jxg","NaN","<div style=""width:500px;"">
                                <p style=""font-size:50px; font-weight:bold;""
                                ></p>
                                <div style=""width:240px; margin: auto;"">
                                    <img src=""images/D9.png"" style= ""width:200px""alt=""img"">
                                </div>
                            </div>","170","","0","images/D9.png","","","","[""Hard"",""Soft""]"
"","","","","","html-slider-response","51","276617","0.0-47.0","988f8j1jxg","NaN","<div style=""width:500px;"">
                                <p style=""font-size:50px; font-weight:bold;""
                                ></p>
                                <div style=""width:240px; margin: auto;"">
                                    <img src=""images/D80.png"" style= ""width:200px""alt=""img"">
                                </div>
                            </div>","141","","0","images/D80.png","","","","[""Hard"",""Soft""]"
"","","","","","html-slider-response","52","278573","0.0-48.0","988f8j1jxg","NaN","<div style=""width:500px;"">
                                <p style=""font-size:50px; font-weight:bold;""
                                ></p>
                                <div style=""width:240px; margin: auto;"">
                                    <img src=""images/D16.png"" style= ""width:200px""alt=""img"">
                                </div>
                            </div>","200","","0","images/D16.png","","","","[""Hard"",""Soft""]"
"","","","","","html-slider-response","53","280293","0.0-49.0","988f8j1jxg","NaN","<div style=""width:500px;"">
                                <p style=""font-size:50px; font-weight:bold;""
                                ></p>
                                <div style=""width:240px; margin: auto;"">
                                    <img src=""images/D46.png"" style= ""width:200px""alt=""img"">
                                </div>
                            </div>","-53","","0","images/D46.png","","","","[""Hard"",""Soft""]"
"","","","","","html-slider-response","54","282079","0.0-50.0","988f8j1jxg","NaN","<div style=""width:500px;"">
                                <p style=""font-size:50px; font-weight:bold;""
                                ></p>
                                <div style=""width:240px; margin: auto;"">
                                    <img src=""images/D21.png"" style= ""width:200px""alt=""img"">
                                </div>
                            </div>","200","","0","images/D21.png","","","","[""Hard"",""Soft""]"
"","","","","","html-slider-response","55","283989","0.0-51.0","988f8j1jxg","NaN","<div style=""width:500px;"">
                                <p style=""font-size:50px; font-weight:bold;""
                                ></p>
                                <div style=""width:240px; margin: auto;"">
                                    <img src=""images/D29.png"" style= ""width:200px""alt=""img"">
                                </div>
                            </div>","83","","0","images/D29.png","","","","[""Hard"",""Soft""]"
"","","","","","html-slider-response","56","285621","0.0-52.0","988f8j1jxg","NaN","<div style=""width:500px;"">
                                <p style=""font-size:50px; font-weight:bold;""
                                ></p>
                                <div style=""width:240px; margin: auto;"">
                                    <img src=""images/D83.png"" style= ""width:200px""alt=""img"">
                                </div>
                            </div>","-44","","0","images/D83.png","","","","[""Hard"",""Soft""]"
"","","","","","html-slider-response","57","288307","0.0-53.0","988f8j1jxg","NaN","<div style=""width:500px;"">
                                <p style=""font-size:50px; font-weight:bold;""
                                ></p>
                                <div style=""width:240px; margin: auto;"">
                                    <img src=""images/D79.png"" style= ""width:200px""alt=""img"">
                                </div>
                            </div>","2","","0","images/D79.png","","","","[""Hard"",""Soft""]"
"","","","","","html-slider-response","58","291593","0.0-54.0","988f8j1jxg","NaN","<div style=""width:500px;"">
                                <p style=""font-size:50px; font-weight:bold;""
                                ></p>
                                <div style=""width:240px; margin: auto;"">
                                    <img src=""images/D84.png"" style= ""width:200px""alt=""img"">
                                </div>
                            </div>","55","","0","images/D84.png","","","","[""Hard"",""Soft""]"
"","","","","","html-slider-response","59","293851","0.0-55.0","988f8j1jxg","NaN","<div style=""width:500px;"">
                                <p style=""font-size:50px; font-weight:bold;""
                                ></p>
                                <div style=""width:240px; margin: auto;"">
                                    <img src=""images/D6.png"" style= ""width:200px""alt=""img"">
                                </div>
                            </div>","148","","0","images/D6.png","","","","[""Hard"",""Soft""]"
"","","","","","html-slider-response","60","296111","0.0-56.0","988f8j1jxg","NaN","<div style=""width:500px;"">
                                <p style=""font-size:50px; font-weight:bold;""
                                ></p>
                                <div style=""width:240px; margin: auto;"">
                                    <img src=""images/D55.png"" style= ""width:200px""alt=""img"">
                                </div>
                            </div>","98","","0","images/D55.png","","","","[""Hard"",""Soft""]"
"","","","","","html-slider-response","61","299044","0.0-57.0","988f8j1jxg","NaN","<div style=""width:500px;"">
                                <p style=""font-size:50px; font-weight:bold;""
                                ></p>
                                <div style=""width:240px; margin: auto;"">
                                    <img src=""images/D26.png"" style= ""width:200px""alt=""img"">
                                </div>
                            </div>","-166","","0","images/D26.png","","","","[""Hard"",""Soft""]"
"","","","","","html-slider-response","62","301510","0.0-58.0","988f8j1jxg","NaN","<div style=""width:500px;"">
                                <p style=""font-size:50px; font-weight:bold;""
                                ></p>
                                <div style=""width:240px; margin: auto;"">
                                    <img src=""images/D52.png"" style= ""width:200px""alt=""img"">
                                </div>
                            </div>","154","","0","images/D52.png","","","","[""Hard"",""Soft""]"
"","","","","","html-slider-response","63","303621","0.0-59.0","988f8j1jxg","NaN","<div style=""width:500px;"">
                                <p style=""font-size:50px; font-weight:bold;""
                                ></p>
                                <div style=""width:240px; margin: auto;"">
                                    <img src=""images/D20.png"" style= ""width:200px""alt=""img"">
                                </div>
                            </div>","-116","","0","images/D20.png","","","","[""Hard"",""Soft""]"
"","","","","","html-slider-response","64","305740","0.0-60.0","988f8j1jxg","NaN","<div style=""width:500px;"">
                                <p style=""font-size:50px; font-weight:bold;""
                                ></p>
                                <div style=""width:240px; margin: auto;"">
                                    <img src=""images/D49.png"" style= ""width:200px""alt=""img"">
                                </div>
                            </div>","58","","0","images/D49.png","","","","[""Hard"",""Soft""]"
"","","","","","html-slider-response","65","308101","0.0-61.0","988f8j1jxg","NaN","<div style=""width:500px;"">
                                <p style=""font-size:50px; font-weight:bold;""
                                ></p>
                                <div style=""width:240px; margin: auto;"">
                                    <img src=""images/D85.png"" style= ""width:200px""alt=""img"">
                                </div>
                            </div>","-47","","0","images/D85.png","","","","[""Hard"",""Soft""]"
"","","","","","html-slider-response","66","310292","0.0-62.0","988f8j1jxg","NaN","<div style=""width:500px;"">
                                <p style=""font-size:50px; font-weight:bold;""
                                ></p>
                                <div style=""width:240px; margin: auto;"">
                                    <img src=""images/D78.png"" style= ""width:200px""alt=""img"">
                                </div>
                            </div>","-10","","0","images/D78.png","","","","[""Hard"",""Soft""]"
"","","","","","html-slider-response","67","312351","0.0-63.0","988f8j1jxg","NaN","<div style=""width:500px;"">
                                <p style=""font-size:50px; font-weight:bold;""
                                ></p>
                                <div style=""width:240px; margin: auto;"">
                                    <img src=""images/D111.png"" style= ""width:200px""alt=""img"">
                                </div>
                            </div>","10","","0","images/D111.png","","","","[""Hard"",""Soft""]"
"","","","","","html-slider-response","68","315712","0.0-64.0","988f8j1jxg","NaN","<div style=""width:500px;"">
                                <p style=""font-size:50px; font-weight:bold;""
                                ></p>
                                <div style=""width:240px; margin: auto;"">
                                    <img src=""images/D34.png"" style= ""width:200px""alt=""img"">
                                </div>
                            </div>","68","","0","images/D34.png","","","","[""Hard"",""Soft""]"
"","","","","","html-slider-response","69","317160","0.0-65.0","988f8j1jxg","NaN","<div style=""width:500px;"">
                                <p style=""font-size:50px; font-weight:bold;""
                                ></p>
                                <div style=""width:240px; margin: auto;"">
                                    <img src=""images/D14.png"" style= ""width:200px""alt=""img"">
                                </div>
                            </div>","23","","0","images/D14.png","","","","[""Hard"",""Soft""]"
"","","","","","html-slider-response","70","320693","0.0-66.0","988f8j1jxg","NaN","<div style=""width:500px;"">
                                <p style=""font-size:50px; font-weight:bold;""
                                ></p>
                                <div style=""width:240px; margin: auto;"">
                                    <img src=""images/D53.png"" style= ""width:200px""alt=""img"">
                                </div>
                            </div>","200","","0","images/D53.png","","","","[""Hard"",""Soft""]"
"","","","","","html-slider-response","71","323134","0.0-67.0","988f8j1jxg","NaN","<div style=""width:500px;"">
                                <p style=""font-size:50px; font-weight:bold;""
                                ></p>
                                <div style=""width:240px; margin: auto;"">
                                    <img src=""images/D68.png"" style= ""width:200px""alt=""img"">
                                </div>
                            </div>","-18","","0","images/D68.png","","","","[""Hard"",""Soft""]"
"","","","","","html-slider-response","72","325226","0.0-68.0","988f8j1jxg","NaN","<div style=""width:500px;"">
                                <p style=""font-size:50px; font-weight:bold;""
                                ></p>
                                <div style=""width:240px; margin: auto;"">
                                    <img src=""images/D104.png"" style= ""width:200px""alt=""img"">
                                </div>
                            </div>","26","","0","images/D104.png","","","","[""Hard"",""Soft""]"
"","","","","","html-slider-response","73","327143","0.0-69.0","988f8j1jxg","NaN","<div style=""width:500px;"">
                                <p style=""font-size:50px; font-weight:bold;""
                                ></p>
                                <div style=""width:240px; margin: auto;"">
                                    <img src=""images/D22.png"" style= ""width:200px""alt=""img"">
                                </div>
                            </div>","54","","0","images/D22.png","","","","[""Hard"",""Soft""]"
"","","","","","html-slider-response","74","328976","0.0-70.0","988f8j1jxg","NaN","<div style=""width:500px;"">
                                <p style=""font-size:50px; font-weight:bold;""
                                ></p>
                                <div style=""width:240px; margin: auto;"">
                                    <img src=""images/D81.png"" style= ""width:200px""alt=""img"">
                                </div>
                            </div>","94","","0","images/D81.png","","","","[""Hard"",""Soft""]"
"","","","","","html-slider-response","75","331378","0.0-71.0","988f8j1jxg","NaN","<div style=""width:500px;"">
                                <p style=""font-size:50px; font-weight:bold;""
                                ></p>
                                <div style=""width:240px; margin: auto;"">
                                    <img src=""images/D66.png"" style= ""width:200px""alt=""img"">
                                </div>
                            </div>","-69","","0","images/D66.png","","","","[""Hard"",""Soft""]"
"","","","","","html-slider-response","76","334967","0.0-72.0","988f8j1jxg","NaN","<div style=""width:500px;"">
                                <p style=""font-size:50px; font-weight:bold;""
                                ></p>
                                <div style=""width:240px; margin: auto;"">
                                    <img src=""images/D103.png"" style= ""width:200px""alt=""img"">
                                </div>
                            </div>","65","","0","images/D103.png","","","","[""Hard"",""Soft""]"
"","","","","","html-slider-response","77","337432","0.0-73.0","988f8j1jxg","NaN","<div style=""width:500px;"">
                                <p style=""font-size:50px; font-weight:bold;""
                                ></p>
                                <div style=""width:240px; margin: auto;"">
                                    <img src=""images/D82.png"" style= ""width:200px""alt=""img"">
                                </div>
                            </div>","46","","0","images/D82.png","","","","[""Hard"",""Soft""]"
"","","","","","html-slider-response","78","339308","0.0-74.0","988f8j1jxg","NaN","<div style=""width:500px;"">
                                <p style=""font-size:50px; font-weight:bold;""
                                ></p>
                                <div style=""width:240px; margin: auto;"">
                                    <img src=""images/D102.png"" style= ""width:200px""alt=""img"">
                                </div>
                            </div>","-68","","0","images/D102.png","","","","[""Hard"",""Soft""]"
"","","","","","html-slider-response","79","341263","0.0-75.0","988f8j1jxg","NaN","<div style=""width:500px;"">
                                <p style=""font-size:50px; font-weight:bold;""
                                ></p>
                                <div style=""width:240px; margin: auto;"">
                                    <img src=""images/D65.png"" style= ""width:200px""alt=""img"">
                                </div>
                            </div>","-106","","0","images/D65.png","","","","[""Hard"",""Soft""]"
"","","","","","html-button-response","80","344122","0.0-76.0","988f8j1jxg","2357","You have completed the first block of trials out of six. Please click 'Continue' when you are ready proceed.","0","","","","","","",""
"","","","","","html-button-response","81","347905","0.0-77.0","988f8j1jxg","3783","In the following trials, you will be asked to rate textures on the scale <b>Rough</b> versus <b>Smooth</b>. Please click 'Continue' when you are ready proceed.","0","","","","","","",""
"","","","","","html-slider-response","82","350941","0.0-78.0","988f8j1jxg","NaN","<div style=""width:500px;"">
                                <p style=""font-size:50px; font-weight:bold;""
                                ></p>
                                <div style=""width:240px; margin: auto;"">
                                    <img src=""images/D17.png"" style= ""width:200px""alt=""img"">
                                </div>
                            </div>","60","","0","images/D17.png","","","","[""Rough"",""Smooth""]"
"","","","","","html-slider-response","83","353380","0.0-79.0","988f8j1jxg","NaN","<div style=""width:500px;"">
                                <p style=""font-size:50px; font-weight:bold;""
                                ></p>
                                <div style=""width:240px; margin: auto;"">
                                    <img src=""images/D105.png"" style= ""width:200px""alt=""img"">
                                </div>
                            </div>","-18","","0","images/D105.png","","","","[""Rough"",""Smooth""]"
"","","","","","html-slider-response","84","355539","0.0-80.0","988f8j1jxg","NaN","<div style=""width:500px;"">
                                <p style=""font-size:50px; font-weight:bold;""
                                ></p>
                                <div style=""width:240px; margin: auto;"">
                                    <img src=""images/D47.png"" style= ""width:200px""alt=""img"">
                                </div>
                            </div>","-126","","0","images/D47.png","","","","[""Rough"",""Smooth""]"
"","","","","","html-slider-response","85","357761","0.0-81.0","988f8j1jxg","NaN","<div style=""width:500px;"">
                                <p style=""font-size:50px; font-weight:bold;""
                                ></p>
                                <div style=""width:240px; margin: auto;"">
                                    <img src=""images/D24.png"" style= ""width:200px""alt=""img"">
                                </div>
                            </div>","71","","0","images/D24.png","","","","[""Rough"",""Smooth""]"
"","","","","","html-slider-response","86","359742","0.0-82.0","988f8j1jxg","NaN","<div style=""width:500px;"">
                                <p style=""font-size:50px; font-weight:bold;""
                                ></p>
                                <div style=""width:240px; margin: auto;"">
                                    <img src=""images/D64.png"" style= ""width:200px""alt=""img"">
                                </div>
                            </div>","-130","","0","images/D64.png","","","","[""Rough"",""Smooth""]"
"","","","","","html-slider-response","87","362620","0.0-83.0","988f8j1jxg","NaN","<div style=""width:500px;"">
                                <p style=""font-size:50px; font-weight:bold;""
                                ></p>
                                <div style=""width:240px; margin: auto;"">
                                    <img src=""images/D36.png"" style= ""width:200px""alt=""img"">
                                </div>
                            </div>","83","","0","images/D36.png","","","","[""Rough"",""Smooth""]"
"","","","","","html-slider-response","88","365643","0.0-84.0","988f8j1jxg","NaN","<div style=""width:500px;"">
                                <p style=""font-size:50px; font-weight:bold;""
                                ></p>
                                <div style=""width:240px; margin: auto;"">
                                    <img src=""images/D77.png"" style= ""width:200px""alt=""img"">
                                </div>
                            </div>","200","","0","images/D77.png","","","","[""Rough"",""Smooth""]"
"","","","","","html-slider-response","89","368293","0.0-85.0","988f8j1jxg","NaN","<div style=""width:500px;"">
                                <p style=""font-size:50px; font-weight:bold;""
                                ></p>
                                <div style=""width:240px; margin: auto;"">
                                    <img src=""images/D57.png"" style= ""width:200px""alt=""img"">
                                </div>
                            </div>","129","","0","images/D57.png","","","","[""Rough"",""Smooth""]"
"","","","","","html-slider-response","90","371156","0.0-86.0","988f8j1jxg","NaN","<div style=""width:500px;"">
                                <p style=""font-size:50px; font-weight:bold;""
                                ></p>
                                <div style=""width:240px; margin: auto;"">
                                    <img src=""images/D11.png"" style= ""width:200px""alt=""img"">
                                </div>
                            </div>","-74","","0","images/D11.png","","","","[""Rough"",""Smooth""]"
"","","","","","html-slider-response","91","373039","0.0-87.0","988f8j1jxg","NaN","<div style=""width:500px;"">
                                <p style=""font-size:50px; font-weight:bold;""
                                ></p>
                                <div style=""width:240px; margin: auto;"">
                                    <img src=""images/D76.png"" style= ""width:200px""alt=""img"">
                                </div>
                            </div>","-50","","0","images/D76.png","","","","[""Rough"",""Smooth""]"
"","","","","","html-slider-response","92","375092","0.0-88.0","988f8j1jxg","NaN","<div style=""width:500px;"">
                                <p style=""font-size:50px; font-weight:bold;""
                                ></p>
                                <div style=""width:240px; margin: auto;"">
                                    <img src=""images/D95.png"" style= ""width:200px""alt=""img"">
                                </div>
                            </div>","-178","","0","images/D95.png","","","","[""Rough"",""Smooth""]"
"","","","","","html-slider-response","93","377467","0.0-89.0","988f8j1jxg","NaN","<div style=""width:500px;"">
                                <p style=""font-size:50px; font-weight:bold;""
                                ></p>
                                <div style=""width:240px; margin: auto;"">
                                    <img src=""images/D74.png"" style= ""width:200px""alt=""img"">
                                </div>
                            </div>","-89","","0","images/D74.png","","","","[""Rough"",""Smooth""]"
"","","","","","html-slider-response","94","379424","0.0-90.0","988f8j1jxg","NaN","<div style=""width:500px;"">
                                <p style=""font-size:50px; font-weight:bold;""
                                ></p>
                                <div style=""width:240px; margin: auto;"">
                                    <img src=""images/D25.png"" style= ""width:200px""alt=""img"">
                                </div>
                            </div>","-192","","0","images/D25.png","","","","[""Rough"",""Smooth""]"
"","","","","","html-slider-response","95","381986","0.0-91.0","988f8j1jxg","NaN","<div style=""width:500px;"">
                                <p style=""font-size:50px; font-weight:bold;""
                                ></p>
                                <div style=""width:240px; margin: auto;"">
                                    <img src=""images/D51.png"" style= ""width:200px""alt=""img"">
                                </div>
                            </div>","-34","","0","images/D51.png","","","","[""Rough"",""Smooth""]"
"","","","","","html-slider-response","96","383625","0.0-92.0","988f8j1jxg","NaN","<div style=""width:500px;"">
                                <p style=""font-size:50px; font-weight:bold;""
                                ></p>
                                <div style=""width:240px; margin: auto;"">
                                    <img src=""images/D35.png"" style= ""width:200px""alt=""img"">
                                </div>
                            </div>","54","","0","images/D35.png","","","","[""Rough"",""Smooth""]"
"","","","","","html-slider-response","97","385670","0.0-93.0","988f8j1jxg","NaN","<div style=""width:500px;"">
                                <p style=""font-size:50px; font-weight:bold;""
                                ></p>
                                <div style=""width:240px; margin: auto;"">
                                    <img src=""images/D4.png"" style= ""width:200px""alt=""img"">
                                </div>
                            </div>","142","","0","images/D4.png","","","","[""Rough"",""Smooth""]"
"","","","","","html-slider-response","98","387749","0.0-94.0","988f8j1jxg","NaN","<div style=""width:500px;"">
                                <p style=""font-size:50px; font-weight:bold;""
                                ></p>
                                <div style=""width:240px; margin: auto;"">
                                    <img src=""images/D19.png"" style= ""width:200px""alt=""img"">
                                </div>
                            </div>","52","","0","images/D19.png","","","","[""Rough"",""Smooth""]"
"","","","","","html-slider-response","99","389493","0.0-95.0","988f8j1jxg","NaN","<div style=""width:500px;"">
                                <p style=""font-size:50px; font-weight:bold;""
                                ></p>
                                <div style=""width:240px; margin: auto;"">
                                    <img src=""images/D48.png"" style= ""width:200px""alt=""img"">
                                </div>
                            </div>","-79","","0","images/D48.png","","","","[""Rough"",""Smooth""]"
"","","","","","html-slider-response","100","391258","0.0-96.0","988f8j1jxg","NaN","<div style=""width:500px;"">
                                <p style=""font-size:50px; font-weight:bold;""
                                ></p>
                                <div style=""width:240px; margin: auto;"">
                                    <img src=""images/D3.png"" style= ""width:200px""alt=""img"">
                                </div>
                            </div>","47","","0","images/D3.png","","","","[""Rough"",""Smooth""]"
"","","","","","html-slider-response","101","393253","0.0-97.0","988f8j1jxg","NaN","<div style=""width:500px;"">
                                <p style=""font-size:50px; font-weight:bold;""
                                ></p>
                                <div style=""width:240px; margin: auto;"">
                                    <img src=""images/D96.png"" style= ""width:200px""alt=""img"">
                                </div>
                            </div>","-174","","0","images/D96.png","","","","[""Rough"",""Smooth""]"
"","","","","","html-slider-response","102","395377","0.0-98.0","988f8j1jxg","NaN","<div style=""width:500px;"">
                                <p style=""font-size:50px; font-weight:bold;""
                                ></p>
                                <div style=""width:240px; margin: auto;"">
                                    <img src=""images/D8.png"" style= ""width:200px""alt=""img"">
                                </div>
                            </div>","-122","","0","images/D8.png","","","","[""Rough"",""Smooth""]"
"","","","","","html-slider-response","103","398047","0.0-99.0","988f8j1jxg","NaN","<div style=""width:500px;"">
                                <p style=""font-size:50px; font-weight:bold;""
                                ></p>
                                <div style=""width:240px; margin: auto;"">
                                    <img src=""images/D32.png"" style= ""width:200px""alt=""img"">
                                </div>
                            </div>","130","","0","images/D32.png","","","","[""Rough"",""Smooth""]"
"","","","","","html-slider-response","104","399882","0.0-100.0","988f8j1jxg","NaN","<div style=""width:500px;"">
                                <p style=""font-size:50px; font-weight:bold;""
                                ></p>
                                <div style=""width:240px; margin: auto;"">
                                    <img src=""images/D94.png"" style= ""width:200px""alt=""img"">
                                </div>
                            </div>","-169","","0","images/D94.png","","","","[""Rough"",""Smooth""]"
"","","","","","html-slider-response","105","401742","0.0-101.0","988f8j1jxg","NaN","<div style=""width:500px;"">
                                <p style=""font-size:50px; font-weight:bold;""
                                ></p>
                                <div style=""width:240px; margin: auto;"">
                                    <img src=""images/D75.png"" style= ""width:200px""alt=""img"">
                                </div>
                            </div>","-65","","0","images/D75.png","","","","[""Rough"",""Smooth""]"
"","","","","","html-slider-response","106","403744","0.0-102.0","988f8j1jxg","NaN","<div style=""width:500px;"">
                                <p style=""font-size:50px; font-weight:bold;""
                                ></p>
                                <div style=""width:240px; margin: auto;"">
                                    <img src=""images/D106.png"" style= ""width:200px""alt=""img"">
                                </div>
                            </div>","-14","","0","images/D106.png","","","","[""Rough"",""Smooth""]"
"","","","","","html-slider-response","107","405589","0.0-103.0","988f8j1jxg","NaN","<div style=""width:500px;"">
                                <p style=""font-size:50px; font-weight:bold;""
                                ></p>
                                <div style=""width:240px; margin: auto;"">
                                    <img src=""images/D1.png"" style= ""width:200px""alt=""img"">
                                </div>
                            </div>","-147","","0","images/D1.png","","","","[""Rough"",""Smooth""]"
"","","","","","html-slider-response","108","407892","0.0-104.0","988f8j1jxg","NaN","<div style=""width:500px;"">
                                <p style=""font-size:50px; font-weight:bold;""
                                ></p>
                                <div style=""width:240px; margin: auto;"">
                                    <img src=""images/D92.png"" style= ""width:200px""alt=""img"">
                                </div>
                            </div>","70","","0","images/D92.png","","","","[""Rough"",""Smooth""]"
"","","","","","html-slider-response","109","410220","0.0-105.0","988f8j1jxg","NaN","<div style=""width:500px;"">
                                <p style=""font-size:50px; font-weight:bold;""
                                ></p>
                                <div style=""width:240px; margin: auto;"">
                                    <img src=""images/D87.png"" style= ""width:200px""alt=""img"">
                                </div>
                            </div>","49","","0","images/D87.png","","","","[""Rough"",""Smooth""]"
"","","","","","html-slider-response","110","412272","0.0-106.0","988f8j1jxg","NaN","<div style=""width:500px;"">
                                <p style=""font-size:50px; font-weight:bold;""
                                ></p>
                                <div style=""width:240px; margin: auto;"">
                                    <img src=""images/D18.png"" style= ""width:200px""alt=""img"">
                                </div>
                            </div>","-122","","0","images/D18.png","","","","[""Rough"",""Smooth""]"
"","","","","","html-slider-response","111","414392","0.0-107.0","988f8j1jxg","NaN","<div style=""width:500px;"">
                                <p style=""font-size:50px; font-weight:bold;""
                                ></p>
                                <div style=""width:240px; margin: auto;"">
                                    <img src=""images/D101.png"" style= ""width:200px""alt=""img"">
                                </div>
                            </div>","-33","","0","images/D101.png","","","","[""Rough"",""Smooth""]"
"","","","","","html-slider-response","112","416443","0.0-108.0","988f8j1jxg","NaN","<div style=""width:500px;"">
                                <p style=""font-size:50px; font-weight:bold;""
                                ></p>
                                <div style=""width:240px; margin: auto;"">
                                    <img src=""images/D37.png"" style= ""width:200px""alt=""img"">
                                </div>
                            </div>","-19","","0","images/D37.png","","","","[""Rough"",""Smooth""]"
"","","","","","html-slider-response","113","417996","0.0-109.0","988f8j1jxg","NaN","<div style=""width:500px;"">
                                <p style=""font-size:50px; font-weight:bold;""
                                ></p>
                                <div style=""width:240px; margin: auto;"">
                                    <img src=""images/D56.png"" style= ""width:200px""alt=""img"">
                                </div>
                            </div>","-114","","0","images/D56.png","","","","[""Rough"",""Smooth""]"
"","","","","","html-slider-response","114","419797","0.0-110.0","988f8j1jxg","NaN","<div style=""width:500px;"">
                                <p style=""font-size:50px; font-weight:bold;""
                                ></p>
                                <div style=""width:240px; margin: auto;"">
                                    <img src=""images/D9.png"" style= ""width:200px""alt=""img"">
                                </div>
                            </div>","111","","0","images/D9.png","","","","[""Rough"",""Smooth""]"
"","","","","","html-slider-response","115","422336","0.0-111.0","988f8j1jxg","NaN","<div style=""width:500px;"">
                                <p style=""font-size:50px; font-weight:bold;""
                                ></p>
                                <div style=""width:240px; margin: auto;"">
                                    <img src=""images/D80.png"" style= ""width:200px""alt=""img"">
                                </div>
                            </div>","29","","0","images/D80.png","","","","[""Rough"",""Smooth""]"
"","","","","","html-slider-response","116","424186","0.0-112.0","988f8j1jxg","NaN","<div style=""width:500px;"">
                                <p style=""font-size:50px; font-weight:bold;""
                                ></p>
                                <div style=""width:240px; margin: auto;"">
                                    <img src=""images/D16.png"" style= ""width:200px""alt=""img"">
                                </div>
                            </div>","119","","0","images/D16.png","","","","[""Rough"",""Smooth""]"
"","","","","","html-slider-response","117","426506","0.0-113.0","988f8j1jxg","NaN","<div style=""width:500px;"">
                                <p style=""font-size:50px; font-weight:bold;""
                                ></p>
                                <div style=""width:240px; margin: auto;"">
                                    <img src=""images/D46.png"" style= ""width:200px""alt=""img"">
                                </div>
                            </div>","-172","","0","images/D46.png","","","","[""Rough"",""Smooth""]"
"","","","","","html-slider-response","118","429158","0.0-114.0","988f8j1jxg","NaN","<div style=""width:500px;"">
                                <p style=""font-size:50px; font-weight:bold;""
                                ></p>
                                <div style=""width:240px; margin: auto;"">
                                    <img src=""images/D21.png"" style= ""width:200px""alt=""img"">
                                </div>
                            </div>","149","","0","images/D21.png","","","","[""Rough"",""Smooth""]"
"","","","","","html-slider-response","119","431736","0.0-115.0","988f8j1jxg","NaN","<div style=""width:500px;"">
                                <p style=""font-size:50px; font-weight:bold;""
                                ></p>
                                <div style=""width:240px; margin: auto;"">
                                    <img src=""images/D29.png"" style= ""width:200px""alt=""img"">
                                </div>
                            </div>","128","","0","images/D29.png","","","","[""Rough"",""Smooth""]"
"","","","","","html-slider-response","120","433619","0.0-116.0","988f8j1jxg","NaN","<div style=""width:500px;"">
                                <p style=""font-size:50px; font-weight:bold;""
                                ></p>
                                <div style=""width:240px; margin: auto;"">
                                    <img src=""images/D83.png"" style= ""width:200px""alt=""img"">
                                </div>
                            </div>","-37","","0","images/D83.png","","","","[""Rough"",""Smooth""]"
"","","","","","html-slider-response","121","435583","0.0-117.0","988f8j1jxg","NaN","<div style=""width:500px;"">
                                <p style=""font-size:50px; font-weight:bold;""
                                ></p>
                                <div style=""width:240px; margin: auto;"">
                                    <img src=""images/D79.png"" style= ""width:200px""alt=""img"">
                                </div>
                            </div>","70","","0","images/D79.png","","","","[""Rough"",""Smooth""]"
"","","","","","html-slider-response","122","437192","0.0-118.0","988f8j1jxg","NaN","<div style=""width:500px;"">
                                <p style=""font-size:50px; font-weight:bold;""
                                ></p>
                                <div style=""width:240px; margin: auto;"">
                                    <img src=""images/D84.png"" style= ""width:200px""alt=""img"">
                                </div>
                            </div>","16","","0","images/D84.png","","","","[""Rough"",""Smooth""]"
"","","","","","html-slider-response","123","439584","0.0-119.0","988f8j1jxg","NaN","<div style=""width:500px;"">
                                <p style=""font-size:50px; font-weight:bold;""
                                ></p>
                                <div style=""width:240px; margin: auto;"">
                                    <img src=""images/D6.png"" style= ""width:200px""alt=""img"">
                                </div>
                            </div>","76","","0","images/D6.png","","","","[""Rough"",""Smooth""]"
"","","","","","html-slider-response","124","441254","0.0-120.0","988f8j1jxg","NaN","<div style=""width:500px;"">
                                <p style=""font-size:50px; font-weight:bold;""
                                ></p>
                                <div style=""width:240px; margin: auto;"">
                                    <img src=""images/D55.png"" style= ""width:200px""alt=""img"">
                                </div>
                            </div>","7","","0","images/D55.png","","","","[""Rough"",""Smooth""]"
"","","","","","html-slider-response","125","443076","0.0-121.0","988f8j1jxg","NaN","<div style=""width:500px;"">
                                <p style=""font-size:50px; font-weight:bold;""
                                ></p>
                                <div style=""width:240px; margin: auto;"">
                                    <img src=""images/D26.png"" style= ""width:200px""alt=""img"">
                                </div>
                            </div>","-186","","0","images/D26.png","","","","[""Rough"",""Smooth""]"
"","","","","","html-slider-response","126","444943","0.0-122.0","988f8j1jxg","NaN","<div style=""width:500px;"">
                                <p style=""font-size:50px; font-weight:bold;""
                                ></p>
                                <div style=""width:240px; margin: auto;"">
                                    <img src=""images/D52.png"" style= ""width:200px""alt=""img"">
                                </div>
                            </div>","34","","0","images/D52.png","","","","[""Rough"",""Smooth""]"
"","","","","","html-slider-response","127","447561","0.0-123.0","988f8j1jxg","NaN","<div style=""width:500px;"">
                                <p style=""font-size:50px; font-weight:bold;""
                                ></p>
                                <div style=""width:240px; margin: auto;"">
                                    <img src=""images/D20.png"" style= ""width:200px""alt=""img"">
                                </div>
                            </div>","2","","0","images/D20.png","","","","[""Rough"",""Smooth""]"
"","","","","","html-slider-response","128","449799","0.0-124.0","988f8j1jxg","NaN","<div style=""width:500px;"">
                                <p style=""font-size:50px; font-weight:bold;""
                                ></p>
                                <div style=""width:240px; margin: auto;"">
                                    <img src=""images/D49.png"" style= ""width:200px""alt=""img"">
                                </div>
                            </div>","87","","0","images/D49.png","","","","[""Rough"",""Smooth""]"
"","","","","","html-slider-response","129","452192","0.0-125.0","988f8j1jxg","NaN","<div style=""width:500px;"">
                                <p style=""font-size:50px; font-weight:bold;""
                                ></p>
                                <div style=""width:240px; margin: auto;"">
                                    <img src=""images/D85.png"" style= ""width:200px""alt=""img"">
                                </div>
                            </div>","49","","0","images/D85.png","","","","[""Rough"",""Smooth""]"
"","","","","","html-slider-response","130","454433","0.0-126.0","988f8j1jxg","NaN","<div style=""width:500px;"">
                                <p style=""font-size:50px; font-weight:bold;""
                                ></p>
                                <div style=""width:240px; margin: auto;"">
                                    <img src=""images/D78.png"" style= ""width:200px""alt=""img"">
                                </div>
                            </div>","67","","0","images/D78.png","","","","[""Rough"",""Smooth""]"
"","","","","","html-slider-response","131","456533","0.0-127.0","988f8j1jxg","NaN","<div style=""width:500px;"">
                                <p style=""font-size:50px; font-weight:bold;""
                                ></p>
                                <div style=""width:240px; margin: auto;"">
                                    <img src=""images/D111.png"" style= ""width:200px""alt=""img"">
                                </div>
                            </div>","18","","0","images/D111.png","","","","[""Rough"",""Smooth""]"
"","","","","","html-slider-response","132","459248","0.0-128.0","988f8j1jxg","NaN","<div style=""width:500px;"">
                                <p style=""font-size:50px; font-weight:bold;""
                                ></p>
                                <div style=""width:240px; margin: auto;"">
                                    <img src=""images/D34.png"" style= ""width:200px""alt=""img"">
                                </div>
                            </div>","4","","0","images/D34.png","","","","[""Rough"",""Smooth""]"
"","","","","","html-slider-response","133","460906","0.0-129.0","988f8j1jxg","NaN","<div style=""width:500px;"">
                                <p style=""font-size:50px; font-weight:bold;""
                                ></p>
                                <div style=""width:240px; margin: auto;"">
                                    <img src=""images/D14.png"" style= ""width:200px""alt=""img"">
                                </div>
                            </div>","49","","0","images/D14.png","","","","[""Rough"",""Smooth""]"
"","","","","","html-slider-response","134","462603","0.0-130.0","988f8j1jxg","NaN","<div style=""width:500px;"">
                                <p style=""font-size:50px; font-weight:bold;""
                                ></p>
                                <div style=""width:240px; margin: auto;"">
                                    <img src=""images/D53.png"" style= ""width:200px""alt=""img"">
                                </div>
                            </div>","113","","0","images/D53.png","","","","[""Rough"",""Smooth""]"
"","","","","","html-slider-response","135","464211","0.0-131.0","988f8j1jxg","NaN","<div style=""width:500px;"">
                                <p style=""font-size:50px; font-weight:bold;""
                                ></p>
                                <div style=""width:240px; margin: auto;"">
                                    <img src=""images/D68.png"" style= ""width:200px""alt=""img"">
                                </div>
                            </div>","-3","","0","images/D68.png","","","","[""Rough"",""Smooth""]"
"","","","","","html-slider-response","136","466022","0.0-132.0","988f8j1jxg","NaN","<div style=""width:500px;"">
                                <p style=""font-size:50px; font-weight:bold;""
                                ></p>
                                <div style=""width:240px; margin: auto;"">
                                    <img src=""images/D104.png"" style= ""width:200px""alt=""img"">
                                </div>
                            </div>","23","","0","images/D104.png","","","","[""Rough"",""Smooth""]"
"","","","","","html-slider-response","137","467620","0.0-133.0","988f8j1jxg","NaN","<div style=""width:500px;"">
                                <p style=""font-size:50px; font-weight:bold;""
                                ></p>
                                <div style=""width:240px; margin: auto;"">
                                    <img src=""images/D22.png"" style= ""width:200px""alt=""img"">
                                </div>
                            </div>","43","","0","images/D22.png","","","","[""Rough"",""Smooth""]"
"","","","","","html-slider-response","138","469228","0.0-134.0","988f8j1jxg","NaN","<div style=""width:500px;"">
                                <p style=""font-size:50px; font-weight:bold;""
                                ></p>
                                <div style=""width:240px; margin: auto;"">
                                    <img src=""images/D81.png"" style= ""width:200px""alt=""img"">
                                </div>
                            </div>","89","","0","images/D81.png","","","","[""Rough"",""Smooth""]"
"","","","","","html-slider-response","139","470992","0.0-135.0","988f8j1jxg","NaN","<div style=""width:500px;"">
                                <p style=""font-size:50px; font-weight:bold;""
                                ></p>
                                <div style=""width:240px; margin: auto;"">
                                    <img src=""images/D66.png"" style= ""width:200px""alt=""img"">
                                </div>
                            </div>","-30","","0","images/D66.png","","","","[""Rough"",""Smooth""]"
"","","","","","html-slider-response","140","472922","0.0-136.0","988f8j1jxg","NaN","<div style=""width:500px;"">
                                <p style=""font-size:50px; font-weight:bold;""
                                ></p>
                                <div style=""width:240px; margin: auto;"">
                                    <img src=""images/D103.png"" style= ""width:200px""alt=""img"">
                                </div>
                            </div>","41","","0","images/D103.png","","","","[""Rough"",""Smooth""]"
"","","","","","html-slider-response","141","475357","0.0-137.0","988f8j1jxg","NaN","<div style=""width:500px;"">
                                <p style=""font-size:50px; font-weight:bold;""
                                ></p>
                                <div style=""width:240px; margin: auto;"">
                                    <img src=""images/D82.png"" style= ""width:200px""alt=""img"">
                                </div>
                            </div>","106","","0","images/D82.png","","","","[""Rough"",""Smooth""]"
"","","","","","html-slider-response","142","477450","0.0-138.0","988f8j1jxg","NaN","<div style=""width:500px;"">
                                <p style=""font-size:50px; font-weight:bold;""
                                ></p>
                                <div style=""width:240px; margin: auto;"">
                                    <img src=""images/D102.png"" style= ""width:200px""alt=""img"">
                                </div>
                            </div>","-27","","0","images/D102.png","","","","[""Rough"",""Smooth""]"
"","","","","","html-slider-response","143","479429","0.0-139.0","988f8j1jxg","NaN","<div style=""width:500px;"">
                                <p style=""font-size:50px; font-weight:bold;""
                                ></p>
                                <div style=""width:240px; margin: auto;"">
                                    <img src=""images/D65.png"" style= ""width:200px""alt=""img"">
                                </div>
                            </div>","-75","","0","images/D65.png","","","","[""Rough"",""Smooth""]"
"","","","","","html-button-response","144","481585","0.0-140.0","988f8j1jxg","1655","You have completed the second block of trials out of six. Please click 'Continue' when you are ready proceed.","0","","","","","","",""
"","","","","","html-button-response","145","488035","0.0-141.0","988f8j1jxg","6449","In the following trials, you will be asked to rate textures on the scale <b>Random</b> versus <b>Non-Random</b>. Please click 'Continue' when you are ready proceed.","0","","","","","","",""
"","","","","","html-slider-response","146","490448","0.0-142.0","988f8j1jxg","NaN","<div style=""width:500px;"">
                                <p style=""font-size:50px; font-weight:bold;""
                                ></p>
                                <div style=""width:240px; margin: auto;"">
                                    <img src=""images/D96.png"" style= ""width:200px""alt=""img"">
                                </div>
                            </div>","-150","","0","images/D96.png","","","","[""Random"",""Non-random""]"
"","","","","","html-slider-response","147","493776","0.0-143.0","988f8j1jxg","NaN","<div style=""width:500px;"">
                                <p style=""font-size:50px; font-weight:bold;""
                                ></p>
                                <div style=""width:240px; margin: auto;"">
                                    <img src=""images/D46.png"" style= ""width:200px""alt=""img"">
                                </div>
                            </div>","71","","0","images/D46.png","","","","[""Random"",""Non-random""]"
"","","","","","html-slider-response","148","495968","0.0-144.0","988f8j1jxg","NaN","<div style=""width:500px;"">
                                <p style=""font-size:50px; font-weight:bold;""
                                ></p>
                                <div style=""width:240px; margin: auto;"">
                                    <img src=""images/D56.png"" style= ""width:200px""alt=""img"">
                                </div>
                            </div>","162","","0","images/D56.png","","","","[""Random"",""Non-random""]"
"","","","","","html-slider-response","149","498449","0.0-145.0","988f8j1jxg","NaN","<div style=""width:500px;"">
                                <p style=""font-size:50px; font-weight:bold;""
                                ></p>
                                <div style=""width:240px; margin: auto;"">
                                    <img src=""images/D6.png"" style= ""width:200px""alt=""img"">
                                </div>
                            </div>","-61","","0","images/D6.png","","","","[""Random"",""Non-random""]"
"","","","","","html-slider-response","150","501288","0.0-146.0","988f8j1jxg","NaN","<div style=""width:500px;"">
                                <p style=""font-size:50px; font-weight:bold;""
                                ></p>
                                <div style=""width:240px; margin: auto;"">
                                    <img src=""images/D14.png"" style= ""width:200px""alt=""img"">
                                </div>
                            </div>","-36","","0","images/D14.png","","","","[""Random"",""Non-random""]"
"","","","","","html-slider-response","151","504109","0.0-147.0","988f8j1jxg","NaN","<div style=""width:500px;"">
                                <p style=""font-size:50px; font-weight:bold;""
                                ></p>
                                <div style=""width:240px; margin: auto;"">
                                    <img src=""images/D77.png"" style= ""width:200px""alt=""img"">
                                </div>
                            </div>","20","","0","images/D77.png","","","","[""Random"",""Non-random""]"
"","","","","","html-slider-response","152","507083","0.0-148.0","988f8j1jxg","NaN","<div style=""width:500px;"">
                                <p style=""font-size:50px; font-weight:bold;""
                                ></p>
                                <div style=""width:240px; margin: auto;"">
                                    <img src=""images/D49.png"" style= ""width:200px""alt=""img"">
                                </div>
                            </div>","-108","","0","images/D49.png","","","","[""Random"",""Non-random""]"
"","","","","","html-slider-response","153","510389","0.0-149.0","988f8j1jxg","NaN","<div style=""width:500px;"">
                                <p style=""font-size:50px; font-weight:bold;""
                                ></p>
                                <div style=""width:240px; margin: auto;"">
                                    <img src=""images/D102.png"" style= ""width:200px""alt=""img"">
                                </div>
                            </div>","126","","0","images/D102.png","","","","[""Random"",""Non-random""]"
"","","","","","html-slider-response","154","513047","0.0-150.0","988f8j1jxg","NaN","<div style=""width:500px;"">
                                <p style=""font-size:50px; font-weight:bold;""
                                ></p>
                                <div style=""width:240px; margin: auto;"">
                                    <img src=""images/D94.png"" style= ""width:200px""alt=""img"">
                                </div>
                            </div>","-178","","0","images/D94.png","","","","[""Random"",""Non-random""]"
"","","","","","html-slider-response","155","515457","0.0-151.0","988f8j1jxg","NaN","<div style=""width:500px;"">
                                <p style=""font-size:50px; font-weight:bold;""
                                ></p>
                                <div style=""width:240px; margin: auto;"">
                                    <img src=""images/D9.png"" style= ""width:200px""alt=""img"">
                                </div>
                            </div>","-200","","0","images/D9.png","","","","[""Random"",""Non-random""]"
"","","","","","html-slider-response","156","517783","0.0-152.0","988f8j1jxg","NaN","<div style=""width:500px;"">
                                <p style=""font-size:50px; font-weight:bold;""
                                ></p>
                                <div style=""width:240px; margin: auto;"">
                                    <img src=""images/D65.png"" style= ""width:200px""alt=""img"">
                                </div>
                            </div>","128","","0","images/D65.png","","","","[""Random"",""Non-random""]"
"","","","","","html-slider-response","157","520241","0.0-153.0","988f8j1jxg","NaN","<div style=""width:500px;"">
                                <p style=""font-size:50px; font-weight:bold;""
                                ></p>
                                <div style=""width:240px; margin: auto;"">
                                    <img src=""images/D48.png"" style= ""width:200px""alt=""img"">
                                </div>
                            </div>","200","","0","images/D48.png","","","","[""Random"",""Non-random""]"
"","","","","","html-slider-response","158","523175","0.0-154.0","988f8j1jxg","NaN","<div style=""width:500px;"">
                                <p style=""font-size:50px; font-weight:bold;""
                                ></p>
                                <div style=""width:240px; margin: auto;"">
                                    <img src=""images/D35.png"" style= ""width:200px""alt=""img"">
                                </div>
                            </div>","-93","","0","images/D35.png","","","","[""Random"",""Non-random""]"
"","","","","","html-slider-response","159","525373","0.0-155.0","988f8j1jxg","NaN","<div style=""width:500px;"">
                                <p style=""font-size:50px; font-weight:bold;""
                                ></p>
                                <div style=""width:240px; margin: auto;"">
                                    <img src=""images/D55.png"" style= ""width:200px""alt=""img"">
                                </div>
                            </div>","-134","","0","images/D55.png","","","","[""Random"",""Non-random""]"
"","","","","","html-slider-response","160","527360","0.0-156.0","988f8j1jxg","NaN","<div style=""width:500px;"">
                                <p style=""font-size:50px; font-weight:bold;""
                                ></p>
                                <div style=""width:240px; margin: auto;"">
                                    <img src=""images/D3.png"" style= ""width:200px""alt=""img"">
                                </div>
                            </div>","-137","","0","images/D3.png","","","","[""Random"",""Non-random""]"
"","","","","","html-slider-response","161","529802","0.0-157.0","988f8j1jxg","NaN","<div style=""width:500px;"">
                                <p style=""font-size:50px; font-weight:bold;""
                                ></p>
                                <div style=""width:240px; margin: auto;"">
                                    <img src=""images/D75.png"" style= ""width:200px""alt=""img"">
                                </div>
                            </div>","-88","","0","images/D75.png","","","","[""Random"",""Non-random""]"
"","","","","","html-slider-response","162","531654","0.0-158.0","988f8j1jxg","NaN","<div style=""width:500px;"">
                                <p style=""font-size:50px; font-weight:bold;""
                                ></p>
                                <div style=""width:240px; margin: auto;"">
                                    <img src=""images/D36.png"" style= ""width:200px""alt=""img"">
                                </div>
                            </div>","-72","","0","images/D36.png","","","","[""Random"",""Non-random""]"
"","","","","","html-slider-response","163","535291","0.0-159.0","988f8j1jxg","NaN","<div style=""width:500px;"">
                                <p style=""font-size:50px; font-weight:bold;""
                                ></p>
                                <div style=""width:240px; margin: auto;"">
                                    <img src=""images/D26.png"" style= ""width:200px""alt=""img"">
                                </div>
                            </div>","-94","","0","images/D26.png","","","","[""Random"",""Non-random""]"
"","","","","","html-slider-response","164","537342","0.0-160.0","988f8j1jxg","NaN","<div style=""width:500px;"">
                                <p style=""font-size:50px; font-weight:bold;""
                                ></p>
                                <div style=""width:240px; margin: auto;"">
                                    <img src=""images/D19.png"" style= ""width:200px""alt=""img"">
                                </div>
                            </div>","-200","","0","images/D19.png","","","","[""Random"",""Non-random""]"
"","","","","","html-slider-response","165","539605","0.0-161.0","988f8j1jxg","NaN","<div style=""width:500px;"">
                                <p style=""font-size:50px; font-weight:bold;""
                                ></p>
                                <div style=""width:240px; margin: auto;"">
                                    <img src=""images/D37.png"" style= ""width:200px""alt=""img"">
                                </div>
                            </div>","-195","","0","images/D37.png","","","","[""Random"",""Non-random""]"
"","","","","","html-slider-response","166","541409","0.0-162.0","988f8j1jxg","NaN","<div style=""width:500px;"">
                                <p style=""font-size:50px; font-weight:bold;""
                                ></p>
                                <div style=""width:240px; margin: auto;"">
                                    <img src=""images/D82.png"" style= ""width:200px""alt=""img"">
                                </div>
                            </div>","-24","","0","images/D82.png","","","","[""Random"",""Non-random""]"
"","","","","","html-slider-response","167","543390","0.0-163.0","988f8j1jxg","NaN","<div style=""width:500px;"">
                                <p style=""font-size:50px; font-weight:bold;""
                                ></p>
                                <div style=""width:240px; margin: auto;"">
                                    <img src=""images/D4.png"" style= ""width:200px""alt=""img"">
                                </div>
                            </div>","-50","","0","images/D4.png","","","","[""Random"",""Non-random""]"
"","","","","","html-slider-response","168","545524","0.0-164.0","988f8j1jxg","NaN","<div style=""width:500px;"">
                                <p style=""font-size:50px; font-weight:bold;""
                                ></p>
                                <div style=""width:240px; margin: auto;"">
                                    <img src=""images/D103.png"" style= ""width:200px""alt=""img"">
                                </div>
                            </div>","38","","0","images/D103.png","","","","[""Random"",""Non-random""]"
"","","","","","html-slider-response","169","547478","0.0-165.0","988f8j1jxg","NaN","<div style=""width:500px;"">
                                <p style=""font-size:50px; font-weight:bold;""
                                ></p>
                                <div style=""width:240px; margin: auto;"">
                                    <img src=""images/D68.png"" style= ""width:200px""alt=""img"">
                                </div>
                            </div>","-160","","0","images/D68.png","","","","[""Random"",""Non-random""]"
"","","","","","html-slider-response","170","549476","0.0-166.0","988f8j1jxg","NaN","<div style=""width:500px;"">
                                <p style=""font-size:50px; font-weight:bold;""
                                ></p>
                                <div style=""width:240px; margin: auto;"">
                                    <img src=""images/D74.png"" style= ""width:200px""alt=""img"">
                                </div>
                            </div>","-50","","0","images/D74.png","","","","[""Random"",""Non-random""]"
"","","","","","html-slider-response","171","551488","0.0-167.0","988f8j1jxg","NaN","<div style=""width:500px;"">
                                <p style=""font-size:50px; font-weight:bold;""
                                ></p>
                                <div style=""width:240px; margin: auto;"">
                                    <img src=""images/D101.png"" style= ""width:200px""alt=""img"">
                                </div>
                            </div>","200","","0","images/D101.png","","","","[""Random"",""Non-random""]"
"","","","","","html-slider-response","172","553509","0.0-168.0","988f8j1jxg","NaN","<div style=""width:500px;"">
                                <p style=""font-size:50px; font-weight:bold;""
                                ></p>
                                <div style=""width:240px; margin: auto;"">
                                    <img src=""images/D87.png"" style= ""width:200px""alt=""img"">
                                </div>
                            </div>","-21","","0","images/D87.png","","","","[""Random"",""Non-random""]"
"","","","","","html-slider-response","173","557520","0.0-169.0","988f8j1jxg","NaN","<div style=""width:500px;"">
                                <p style=""font-size:50px; font-weight:bold;""
                                ></p>
                                <div style=""width:240px; margin: auto;"">
                                    <img src=""images/D25.png"" style= ""width:200px""alt=""img"">
                                </div>
                            </div>","74","","0","images/D25.png","","","","[""Random"",""Non-random""]"
"","","","","","html-slider-response","174","559967","0.0-170.0","988f8j1jxg","NaN","<div style=""width:500px;"">
                                <p style=""font-size:50px; font-weight:bold;""
                                ></p>
                                <div style=""width:240px; margin: auto;"">
                                    <img src=""images/D53.png"" style= ""width:200px""alt=""img"">
                                </div>
                            </div>","106","","0","images/D53.png","","","","[""Random"",""Non-random""]"
"","","","","","html-slider-response","175","561917","0.0-171.0","988f8j1jxg","NaN","<div style=""width:500px;"">
                                <p style=""font-size:50px; font-weight:bold;""
                                ></p>
                                <div style=""width:240px; margin: auto;"">
                                    <img src=""images/D18.png"" style= ""width:200px""alt=""img"">
                                </div>
                            </div>","48","","0","images/D18.png","","","","[""Random"",""Non-random""]"
"","","","","","html-slider-response","176","563920","0.0-172.0","988f8j1jxg","NaN","<div style=""width:500px;"">
                                <p style=""font-size:50px; font-weight:bold;""
                                ></p>
                                <div style=""width:240px; margin: auto;"">
                                    <img src=""images/D84.png"" style= ""width:200px""alt=""img"">
                                </div>
                            </div>","-105","","0","images/D84.png","","","","[""Random"",""Non-random""]"
"","","","","","html-slider-response","177","565655","0.0-173.0","988f8j1jxg","NaN","<div style=""width:500px;"">
                                <p style=""font-size:50px; font-weight:bold;""
                                ></p>
                                <div style=""width:240px; margin: auto;"">
                                    <img src=""images/D52.png"" style= ""width:200px""alt=""img"">
                                </div>
                            </div>","74","","0","images/D52.png","","","","[""Random"",""Non-random""]"
"","","","","","html-slider-response","178","573279","0.0-174.0","988f8j1jxg","NaN","<div style=""width:500px;"">
                                <p style=""font-size:50px; font-weight:bold;""
                                ></p>
                                <div style=""width:240px; margin: auto;"">
                                    <img src=""images/D92.png"" style= ""width:200px""alt=""img"">
                                </div>
                            </div>","-35","","0","images/D92.png","","","","[""Random"",""Non-random""]"
"","","","","","html-slider-response","179","575113","0.0-175.0","988f8j1jxg","NaN","<div style=""width:500px;"">
                                <p style=""font-size:50px; font-weight:bold;""
                                ></p>
                                <div style=""width:240px; margin: auto;"">
                                    <img src=""images/D111.png"" style= ""width:200px""alt=""img"">
                                </div>
                            </div>","-60","","0","images/D111.png","","","","[""Random"",""Non-random""]"
"","","","","","html-slider-response","180","577119","0.0-176.0","988f8j1jxg","NaN","<div style=""width:500px;"">
                                <p style=""font-size:50px; font-weight:bold;""
                                ></p>
                                <div style=""width:240px; margin: auto;"">
                                    <img src=""images/D17.png"" style= ""width:200px""alt=""img"">
                                </div>
                            </div>","79","","0","images/D17.png","","","","[""Random"",""Non-random""]"
"","","","","","html-slider-response","181","579568","0.0-177.0","988f8j1jxg","NaN","<div style=""width:500px;"">
                                <p style=""font-size:50px; font-weight:bold;""
                                ></p>
                                <div style=""width:240px; margin: auto;"">
                                    <img src=""images/D64.png"" style= ""width:200px""alt=""img"">
                                </div>
                            </div>","105","","0","images/D64.png","","","","[""Random"",""Non-random""]"
"","","","","","html-slider-response","182","581216","0.0-178.0","988f8j1jxg","NaN","<div style=""width:500px;"">
                                <p style=""font-size:50px; font-weight:bold;""
                                ></p>
                                <div style=""width:240px; margin: auto;"">
                                    <img src=""images/D29.png"" style= ""width:200px""alt=""img"">
                                </div>
                            </div>","-63","","0","images/D29.png","","","","[""Random"",""Non-random""]"
"","","","","","html-slider-response","183","586679","0.0-179.0","988f8j1jxg","NaN","<div style=""width:500px;"">
                                <p style=""font-size:50px; font-weight:bold;""
                                ></p>
                                <div style=""width:240px; margin: auto;"">
                                    <img src=""images/D80.png"" style= ""width:200px""alt=""img"">
                                </div>
                            </div>","-58","","0","images/D80.png","","","","[""Random"",""Non-random""]"
"","","","","","html-slider-response","184","588556","0.0-180.0","988f8j1jxg","NaN","<div style=""width:500px;"">
                                <p style=""font-size:50px; font-weight:bold;""
                                ></p>
                                <div style=""width:240px; margin: auto;"">
                                    <img src=""images/D83.png"" style= ""width:200px""alt=""img"">
                                </div>
                            </div>","50","","0","images/D83.png","","","","[""Random"",""Non-random""]"
"","","","","","html-slider-response","185","590569","0.0-181.0","988f8j1jxg","NaN","<div style=""width:500px;"">
                                <p style=""font-size:50px; font-weight:bold;""
                                ></p>
                                <div style=""width:240px; margin: auto;"">
                                    <img src=""images/D95.png"" style= ""width:200px""alt=""img"">
                                </div>
                            </div>","78","","0","images/D95.png","","","","[""Random"",""Non-random""]"
"","","","","","html-slider-response","186","592483","0.0-182.0","988f8j1jxg","NaN","<div style=""width:500px;"">
                                <p style=""font-size:50px; font-weight:bold;""
                                ></p>
                                <div style=""width:240px; margin: auto;"">
                                    <img src=""images/D66.png"" style= ""width:200px""alt=""img"">
                                </div>
                            </div>","-44","","0","images/D66.png","","","","[""Random"",""Non-random""]"
"","","","","","html-slider-response","187","594788","0.0-183.0","988f8j1jxg","NaN","<div style=""width:500px;"">
                                <p style=""font-size:50px; font-weight:bold;""
                                ></p>
                                <div style=""width:240px; margin: auto;"">
