"success","timeout","failed_images","failed_audio","failed_video","trial_type","trial_index","time_elapsed","internal_node_id","subject_id","rt","stimulus","response","question_order","slider_start","image_path","practiceTrial","practiceTrialNum","correct","slider_labels"
"true","false","[]","[]","[]","preload","0","411","0.0-0.0","aoxngvrtuk","","","","","","","","","",""
"","","","","","html-button-response","1","3653373","0.0-1.0","aoxngvrtuk","3652958","<div style='text-align:center; font-size:20px; line-height:25px; width: 1200px;'>
                Welcome to our experiment! <br>
                <br>At the bottom of this screen, you will see a button that says 'Begin Experiment.
                <br>Please only click that button when you are ready to complete the 25 minute experiment in one sitting. <br>
                <br> Once you click that button, it will not be possible to restart the experiment. <br><br>","0","","","","","","",""
"true","","","","","fullscreen","2","3656568","0.0-2.0","aoxngvrtuk","2176","","","","","","","","",""
"","","","","","survey-multi-select","3","3689087","0.0-3.0","aoxngvrtuk","32510","","{""Consent"":[""<strong>I consent</strong>""]}","[0]","","","","","",""
"","","","","","html-button-response","4","3692558","0.0-4.0","aoxngvrtuk","3467","Welcome! <p> This experiment involves two parts: demographic information, followed by the experimental task.<p> It will take about 25 minutes to complete both parts.","0","","","","","","",""
"","","","","","survey-text","5","3700502","0.0-5.0","aoxngvrtuk","7936","","{""Age"":""19"",""Gender"":""female"",""Race/ethnicity"":""white""}","","","","","","",""
"","","","","","html-slider-response","6","3718511","0.0-6.0","aoxngvrtuk","18004","
                <div style='text-align:center; height: auto; margin-left=-100px; margin-bottom: -20px; font-size:20px; line-height:5px; width: 1200px;'>
                    <br>During this experiment, you will see a series of textures, one at a time, like the ones below: 
                </div>
                    <br>
                    <br>
                    <img src=""anchoring_visual_textures.png"" alt=""img"" style=""max-width:1200px; margin-left: -10px;"">
                </div>
                <div style=""clear: both;""></div>
                </div>
                    <div style='text-align:center; margin-left=-100px; font-size:20px; line-height:20px; width: 1200px; margin-top: -50px;'>
                    
                    <br> For each texture, you will be asked to rate where you think it falls on each of the response scales with the following endpoints:
                    </div>
                            <div style=""text-align: center; width: 1400px; "">
                                <p style=""font-size:20px; line-height:5px; ""><b>Blobby</b> versus <b>Stripey</b></p>
                                <p style=""font-size:20px; line-height:5px; ""><b>Rounded</b> versus <b>Rectangular</b></p>
                                <p style=""font-size:20px;line-height:5px;""><b>Coarse</b> versus <b>Fine</b></p>
                                <p style=""font-size:20px;line-height:5px; ""><b>Rough</b> versus <b>Smooth</b></p>
                                <p style=""font-size:20px;line-height:5px; ""><b>Random</b> versus <b>Non-Random</b></p>
                                <p style=""font-size:20px;line-height:5px;""><b>Hard</b> versus <b>Soft</b></p>
                            </div>
                            <div style='text-align:center; font-size:20px; line-height:20px; width: 1400px;'>
                    
                    Each trial will include one texture and one response scale. You will be asked to make your rating by sliding the cursor along a slider response scale like the one below.
                    <br><br> Before beginning, please look at the textures and scales. For each scale, think about the texture you associate most with the left endpoint. When you see that texture for that response scale, please click near the left of the scale.
                    <br><br> Now, please think about the texture you associate most with the right endpoint of each scale. When you see that texture for that response scale, please click near the right of the scale. 
                    <br><br> If you think a texture is not strongly associated with either endpoint of the scale, please click near the midpoint of the scale. Please use the full range of the scale. 
                    <br><br> You will be asked to rate each texture for a given scale before moving on to the next scale.
                    <br><br> Please press the 'Continue' button for instructions on how to use the slider.                     <br><br>
                ","null","","0","visual_textures_anchoring.png","true","","",""
"","","","","","html-button-response","7","3721419","0.0-7.0","aoxngvrtuk","2904","<div style=""width:1200px; margin-top:-150px;""><p style=""text-align:center; font-size:24px;"">To move the slider, click and drag your cursor to the location of the scale where you would like to make your rating and then let go. <br><br> When you let go of the slider, your response will be recorded and the next trial will begin. <br><br><br>
                We are interested in your initial impressions of each texture and scale, so please go with your first intuition. <br><br>
                Before you begin the experiment, there will be four training trials for you to practice using the scale. <br><br><br><br></div>
                <div style=""width:1200px;""><p style=""text-align:center; font-size:20px;"">When you are ready to start the training trials, please click ""Continue"".</p></div>","0","","","","","","",""
"","","","","","html-slider-response","8","3725461","0.0-8.0-0.0","aoxngvrtuk","NaN","<div style=""width:500px;"">
                                <p style=""font-size:25px;"">Please move the slider all the way to the <br> right endpoint of the scale</p>

                                </div>
                            </div>","198","","0","","true","0","true",""
"","","","","","html-button-response","9","3727154","0.0-8.0-1.0","aoxngvrtuk","1175","<p align='center'><b>Good job!</b> Click on 'Continue' to proceed.</p>","0","","","","","","",""
"","","","","","html-slider-response","10","3728736","0.0-9.0-0.0","aoxngvrtuk","NaN","<div style=""width:500px;"">
                                <p style=""font-size:25px;"">Please move the slider all the way to the <br> left endpoint of the scale</p>

                                </div>
                            </div>","-200","","0","","true","1","true",""
"","","","","","html-button-response","11","3730368","0.0-9.0-1.0","aoxngvrtuk","1129","<p align='center'><b>Good job!</b> Click on 'Continue' to proceed.</p>","0","","","","","","",""
"","","","","","html-slider-response","12","3735266","0.0-10.0-0.0","aoxngvrtuk","NaN","<div style=""width:500px;"">
                                <p style=""font-size:25px;"">Please move the slider halfway between the center and right endpoint of the scale</p>

                                </div>
                            </div>","99","","0","","true","2","true",""
"","","","","","html-button-response","13","3736569","0.0-10.0-1.0","aoxngvrtuk","797","<p align='center'><b>Good job!</b> Click on 'Continue' to proceed.</p>","0","","","","","","",""
"","","","","","html-slider-response","14","3739837","0.0-11.0-0.0","aoxngvrtuk","NaN","<div style=""width:500px;"">
                                <p style=""font-size:25px;"">Please move the slider halfway between the center and left endpoint of the scale</p>

                                </div>
                            </div>","-119","","0","","true","3","false",""
"","","","","","html-button-response","15","3744635","0.0-11.0-1.0","aoxngvrtuk","4281","<p align='center'><b>Not quite!</b> The slider was not placed near the instructed locattion. Click on 'Continue' to try again. </p>","0","","","","","","",""
"","","","","","html-slider-response","16","3749862","0.0-11.1-0.1","aoxngvrtuk","NaN","<div style=""width:500px;"">
                                <p style=""font-size:25px;"">Please move the slider halfway between the center and left endpoint of the scale</p>

                                </div>
                            </div>","-110","","0","","true","3","true",""
"","","","","","html-button-response","17","3751581","0.0-11.1-1.1","aoxngvrtuk","1213","<p align='center'><b>Good job!</b> Click on 'Continue' to proceed.</p>","0","","","","","","",""
"","","","","","html-button-response","18","3753283","0.0-12.0","aoxngvrtuk","1699","<div style=""width:800px; margin-top:-300px;""><p style=""text-align:center; font-size:22px; line-height:25px;""""> Great job! You've completed the practice trials.</div>
                     <div style=""width:800px; margin-top:-20px;""><p style=""text-align:center""><br><br> In the following trials, you will be asked to rate textures on each scale one-by-one. <br> You will be given opportunities to take breaks when you have completed each block of trials. There are six total blocks of trials. <br><br> Please click continue to begin the main task.<br><br><br> </div>","0","","","","","","",""
"","","","","","html-button-response","19","3758990","0.0-13.0","aoxngvrtuk","5701","In the following trials, you will be asked to rate textures on the scale <b>Blobby</b> versus <b>Stripey</b>. Please click 'Continue' when you are ready proceed.","0","","","","","","",""
"","","","","","html-slider-response","20","3761235","0.0-14.0","aoxngvrtuk","NaN","<div style=""width:500px;"">
                                <p style=""font-size:50px; font-weight:bold;""
                                ></p>
                                <div style=""width:240px; margin: auto;"">
                                    <img src=""images/D3.png"" style= ""width:200px""alt=""img"">
                                </div>
                            </div>","-110","","0","images/D3.png","","","","[""Blobby"",""Stripey""]"
"","","","","","html-slider-response","21","3765874","0.0-15.0","aoxngvrtuk","NaN","<div style=""width:500px;"">
                                <p style=""font-size:50px; font-weight:bold;""
                                ></p>
                                <div style=""width:240px; margin: auto;"">
                                    <img src=""images/D84.png"" style= ""width:200px""alt=""img"">
                                </div>
                            </div>","-181","","0","images/D84.png","","","","[""Blobby"",""Stripey""]"
"","","","","","html-slider-response","22","3769504","0.0-16.0","aoxngvrtuk","NaN","<div style=""width:500px;"">
                                <p style=""font-size:50px; font-weight:bold;""
                                ></p>
                                <div style=""width:240px; margin: auto;"">
                                    <img src=""images/D101.png"" style= ""width:200px""alt=""img"">
                                </div>
                            </div>","51","","0","images/D101.png","","","","[""Blobby"",""Stripey""]"
"","","","","","html-slider-response","23","3772787","0.0-17.0","aoxngvrtuk","NaN","<div style=""width:500px;"">
                                <p style=""font-size:50px; font-weight:bold;""
                                ></p>
                                <div style=""width:240px; margin: auto;"">
                                    <img src=""images/D26.png"" style= ""width:200px""alt=""img"">
                                </div>
                            </div>","124","","0","images/D26.png","","","","[""Blobby"",""Stripey""]"
"","","","","","html-slider-response","24","3775970","0.0-18.0","aoxngvrtuk","NaN","<div style=""width:500px;"">
                                <p style=""font-size:50px; font-weight:bold;""
                                ></p>
                                <div style=""width:240px; margin: auto;"">
                                    <img src=""images/D79.png"" style= ""width:200px""alt=""img"">
                                </div>
                            </div>","200","","0","images/D79.png","","","","[""Blobby"",""Stripey""]"
"","","","","","html-slider-response","25","3778069","0.0-19.0","aoxngvrtuk","NaN","<div style=""width:500px;"">
                                <p style=""font-size:50px; font-weight:bold;""
                                ></p>
                                <div style=""width:240px; margin: auto;"">
                                    <img src=""images/D76.png"" style= ""width:200px""alt=""img"">
                                </div>
                            </div>","200","","0","images/D76.png","","","","[""Blobby"",""Stripey""]"
"","","","","","html-slider-response","26","3781153","0.0-20.0","aoxngvrtuk","NaN","<div style=""width:500px;"">
                                <p style=""font-size:50px; font-weight:bold;""
                                ></p>
                                <div style=""width:240px; margin: auto;"">
                                    <img src=""images/D64.png"" style= ""width:200px""alt=""img"">
                                </div>
                            </div>","42","","0","images/D64.png","","","","[""Blobby"",""Stripey""]"
"","","","","","html-slider-response","27","3783620","0.0-21.0","aoxngvrtuk","NaN","<div style=""width:500px;"">
                                <p style=""font-size:50px; font-weight:bold;""
                                ></p>
                                <div style=""width:240px; margin: auto;"">
                                    <img src=""images/D17.png"" style= ""width:200px""alt=""img"">
                                </div>
                            </div>","88","","0","images/D17.png","","","","[""Blobby"",""Stripey""]"
"","","","","","html-slider-response","28","3787008","0.0-22.0","aoxngvrtuk","NaN","<div style=""width:500px;"">
                                <p style=""font-size:50px; font-weight:bold;""
                                ></p>
                                <div style=""width:240px; margin: auto;"">
                                    <img src=""images/D102.png"" style= ""width:200px""alt=""img"">
                                </div>
                            </div>","-98","","0","images/D102.png","","","","[""Blobby"",""Stripey""]"
"","","","","","html-slider-response","29","3790871","0.0-23.0","aoxngvrtuk","NaN","<div style=""width:500px;"">
                                <p style=""font-size:50px; font-weight:bold;""
                                ></p>
                                <div style=""width:240px; margin: auto;"">
                                    <img src=""images/D6.png"" style= ""width:200px""alt=""img"">
                                </div>
                            </div>","-121","","0","images/D6.png","","","","[""Blobby"",""Stripey""]"
"","","","","","html-slider-response","30","3793254","0.0-24.0","aoxngvrtuk","NaN","<div style=""width:500px;"">
                                <p style=""font-size:50px; font-weight:bold;""
                                ></p>
                                <div style=""width:240px; margin: auto;"">
                                    <img src=""images/D29.png"" style= ""width:200px""alt=""img"">
                                </div>
                            </div>","-112","","0","images/D29.png","","","","[""Blobby"",""Stripey""]"
"","","","","","html-slider-response","31","3796572","0.0-25.0","aoxngvrtuk","NaN","<div style=""width:500px;"">
                                <p style=""font-size:50px; font-weight:bold;""
                                ></p>
                                <div style=""width:240px; margin: auto;"">
                                    <img src=""images/D14.png"" style= ""width:200px""alt=""img"">
                                </div>
                            </div>","75","","0","images/D14.png","","","","[""Blobby"",""Stripey""]"
"","","","","","html-slider-response","32","3799803","0.0-26.0","aoxngvrtuk","NaN","<div style=""width:500px;"">
                                <p style=""font-size:50px; font-weight:bold;""
                                ></p>
                                <div style=""width:240px; margin: auto;"">
                                    <img src=""images/D80.png"" style= ""width:200px""alt=""img"">
                                </div>
                            </div>","-200","","0","images/D80.png","","","","[""Blobby"",""Stripey""]"
"","","","","","html-slider-response","33","3802469","0.0-27.0","aoxngvrtuk","NaN","<div style=""width:500px;"">
                                <p style=""font-size:50px; font-weight:bold;""
                                ></p>
                                <div style=""width:240px; margin: auto;"">
                                    <img src=""images/D11.png"" style= ""width:200px""alt=""img"">
                                </div>
                            </div>","200","","0","images/D11.png","","","","[""Blobby"",""Stripey""]"
"","","","","","html-slider-response","34","3805439","0.0-28.0","aoxngvrtuk","NaN","<div style=""width:500px;"">
                                <p style=""font-size:50px; font-weight:bold;""
                                ></p>
                                <div style=""width:240px; margin: auto;"">
                                    <img src=""images/D55.png"" style= ""width:200px""alt=""img"">
                                </div>
                            </div>","80","","0","images/D55.png","","","","[""Blobby"",""Stripey""]"
"","","","","","html-slider-response","35","3808349","0.0-29.0","aoxngvrtuk","NaN","<div style=""width:500px;"">
                                <p style=""font-size:50px; font-weight:bold;""
                                ></p>
                                <div style=""width:240px; margin: auto;"">
                                    <img src=""images/D68.png"" style= ""width:200px""alt=""img"">
                                </div>
                            </div>","-26","","0","images/D68.png","","","","[""Blobby"",""Stripey""]"
"","","","","","html-slider-response","36","3810779","0.0-30.0","aoxngvrtuk","NaN","<div style=""width:500px;"">
                                <p style=""font-size:50px; font-weight:bold;""
                                ></p>
                                <div style=""width:240px; margin: auto;"">
                                    <img src=""images/D96.png"" style= ""width:200px""alt=""img"">
                                </div>
                            </div>","40","","0","images/D96.png","","","","[""Blobby"",""Stripey""]"
"","","","","","html-slider-response","37","3813385","0.0-31.0","aoxngvrtuk","NaN","<div style=""width:500px;"">
                                <p style=""font-size:50px; font-weight:bold;""
                                ></p>
                                <div style=""width:240px; margin: auto;"">
                                    <img src=""images/D25.png"" style= ""width:200px""alt=""img"">
                                </div>
                            </div>","133","","0","images/D25.png","","","","[""Blobby"",""Stripey""]"
"","","","","","html-slider-response","38","3816335","0.0-32.0","aoxngvrtuk","NaN","<div style=""width:500px;"">
                                <p style=""font-size:50px; font-weight:bold;""
                                ></p>
                                <div style=""width:240px; margin: auto;"">
                                    <img src=""images/D35.png"" style= ""width:200px""alt=""img"">
                                </div>
                            </div>","-105","","0","images/D35.png","","","","[""Blobby"",""Stripey""]"
"","","","","","html-slider-response","39","3818718","0.0-33.0","aoxngvrtuk","NaN","<div style=""width:500px;"">
                                <p style=""font-size:50px; font-weight:bold;""
                                ></p>
                                <div style=""width:240px; margin: auto;"">
                                    <img src=""images/D22.png"" style= ""width:200px""alt=""img"">
                                </div>
                            </div>","-56","","0","images/D22.png","","","","[""Blobby"",""Stripey""]"
"","","","","","html-slider-response","40","3822443","0.0-34.0","aoxngvrtuk","NaN","<div style=""width:500px;"">
                                <p style=""font-size:50px; font-weight:bold;""
                                ></p>
                                <div style=""width:240px; margin: auto;"">
                                    <img src=""images/D103.png"" style= ""width:200px""alt=""img"">
                                </div>
                            </div>","29","","0","images/D103.png","","","","[""Blobby"",""Stripey""]"
"","","","","","html-slider-response","41","3825253","0.0-35.0","aoxngvrtuk","NaN","<div style=""width:500px;"">
                                <p style=""font-size:50px; font-weight:bold;""
                                ></p>
                                <div style=""width:240px; margin: auto;"">
                                    <img src=""images/D57.png"" style= ""width:200px""alt=""img"">
                                </div>
                            </div>","-195","","0","images/D57.png","","","","[""Blobby"",""Stripey""]"
"","","","","","html-slider-response","42","3831149","0.0-36.0","aoxngvrtuk","NaN","<div style=""width:500px;"">
                                <p style=""font-size:50px; font-weight:bold;""
                                ></p>
                                <div style=""width:240px; margin: auto;"">
                                    <img src=""images/D19.png"" style= ""width:200px""alt=""img"">
                                </div>
                            </div>","-196","","0","images/D19.png","","","","[""Blobby"",""Stripey""]"
"","","","","","html-slider-response","43","3833479","0.0-37.0","aoxngvrtuk","NaN","<div style=""width:500px;"">
                                <p style=""font-size:50px; font-weight:bold;""
                                ></p>
                                <div style=""width:240px; margin: auto;"">
                                    <img src=""images/D106.png"" style= ""width:200px""alt=""img"">
                                </div>
                            </div>","200","","0","images/D106.png","","","","[""Blobby"",""Stripey""]"
"","","","","","html-slider-response","44","3838018","0.0-38.0","aoxngvrtuk","NaN","<div style=""width:500px;"">
                                <p style=""font-size:50px; font-weight:bold;""
                                ></p>
                                <div style=""width:240px; margin: auto;"">
                                    <img src=""images/D85.png"" style= ""width:200px""alt=""img"">
                                </div>
                            </div>","163","","0","images/D85.png","","","","[""Blobby"",""Stripey""]"
"","","","","","html-slider-response","45","3840367","0.0-39.0","aoxngvrtuk","NaN","<div style=""width:500px;"">
                                <p style=""font-size:50px; font-weight:bold;""
                                ></p>
                                <div style=""width:240px; margin: auto;"">
                                    <img src=""images/D82.png"" style= ""width:200px""alt=""img"">
                                </div>
                            </div>","53","","0","images/D82.png","","","","[""Blobby"",""Stripey""]"
"","","","","","html-slider-response","46","3842584","0.0-40.0","aoxngvrtuk","NaN","<div style=""width:500px;"">
                                <p style=""font-size:50px; font-weight:bold;""
                                ></p>
                                <div style=""width:240px; margin: auto;"">
                                    <img src=""images/D111.png"" style= ""width:200px""alt=""img"">
                                </div>
                            </div>","-200","","0","images/D111.png","","","","[""Blobby"",""Stripey""]"
"","","","","","html-slider-response","47","3846173","0.0-41.0","aoxngvrtuk","NaN","<div style=""width:500px;"">
                                <p style=""font-size:50px; font-weight:bold;""
                                ></p>
                                <div style=""width:240px; margin: auto;"">
                                    <img src=""images/D92.png"" style= ""width:200px""alt=""img"">
                                </div>
                            </div>","-200","","0","images/D92.png","","","","[""Blobby"",""Stripey""]"
"","","","","","html-slider-response","48","3848368","0.0-42.0","aoxngvrtuk","NaN","<div style=""width:500px;"">
                                <p style=""font-size:50px; font-weight:bold;""
                                ></p>
                                <div style=""width:240px; margin: auto;"">
                                    <img src=""images/D16.png"" style= ""width:200px""alt=""img"">
                                </div>
                            </div>","101","","0","images/D16.png","","","","[""Blobby"",""Stripey""]"
"","","","","","html-slider-response","49","3852399","0.0-43.0","aoxngvrtuk","NaN","<div style=""width:500px;"">
                                <p style=""font-size:50px; font-weight:bold;""
                                ></p>
                                <div style=""width:240px; margin: auto;"">
                                    <img src=""images/D104.png"" style= ""width:200px""alt=""img"">
                                </div>
                            </div>","119","","0","images/D104.png","","","","[""Blobby"",""Stripey""]"
"","","","","","html-slider-response","50","3855049","0.0-44.0","aoxngvrtuk","NaN","<div style=""width:500px;"">
                                <p style=""font-size:50px; font-weight:bold;""
                                ></p>
                                <div style=""width:240px; margin: auto;"">
                                    <img src=""images/D81.png"" style= ""width:200px""alt=""img"">
                                </div>
                            </div>","-38","","0","images/D81.png","","","","[""Blobby"",""Stripey""]"
"","","","","","html-slider-response","51","3857518","0.0-45.0","aoxngvrtuk","NaN","<div style=""width:500px;"">
                                <p style=""font-size:50px; font-weight:bold;""
                                ></p>
                                <div style=""width:240px; margin: auto;"">
                                    <img src=""images/D94.png"" style= ""width:200px""alt=""img"">
                                </div>
                            </div>","200","","0","images/D94.png","","","","[""Blobby"",""Stripey""]"
"","","","","","html-slider-response","52","3860669","0.0-46.0","aoxngvrtuk","NaN","<div style=""width:500px;"">
                                <p style=""font-size:50px; font-weight:bold;""
                                ></p>
                                <div style=""width:240px; margin: auto;"">
                                    <img src=""images/D18.png"" style= ""width:200px""alt=""img"">
                                </div>
                            </div>","50","","0","images/D18.png","","","","[""Blobby"",""Stripey""]"
"","","","","","html-slider-response","53","3863332","0.0-47.0","aoxngvrtuk","NaN","<div style=""width:500px;"">
                                <p style=""font-size:50px; font-weight:bold;""
                                ></p>
                                <div style=""width:240px; margin: auto;"">
                                    <img src=""images/D20.png"" style= ""width:200px""alt=""img"">
                                </div>
                            </div>","141","","0","images/D20.png","","","","[""Blobby"",""Stripey""]"
"","","","","","html-slider-response","54","3865968","0.0-48.0","aoxngvrtuk","NaN","<div style=""width:500px;"">
                                <p style=""font-size:50px; font-weight:bold;""
                                ></p>
                                <div style=""width:240px; margin: auto;"">
                                    <img src=""images/D66.png"" style= ""width:200px""alt=""img"">
                                </div>
                            </div>","-170","","0","images/D66.png","","","","[""Blobby"",""Stripey""]"
"","","","","","html-slider-response","55","3871947","0.0-49.0","aoxngvrtuk","NaN","<div style=""width:500px;"">
                                <p style=""font-size:50px; font-weight:bold;""
                                ></p>
                                <div style=""width:240px; margin: auto;"">
                                    <img src=""images/D34.png"" style= ""width:200px""alt=""img"">
                                </div>
                            </div>","-106","","0","images/D34.png","","","","[""Blobby"",""Stripey""]"
"","","","","","html-slider-response","56","3875203","0.0-50.0","aoxngvrtuk","NaN","<div style=""width:500px;"">
                                <p style=""font-size:50px; font-weight:bold;""
                                ></p>
                                <div style=""width:240px; margin: auto;"">
                                    <img src=""images/D77.png"" style= ""width:200px""alt=""img"">
                                </div>
                            </div>","-63","","0","images/D77.png","","","","[""Blobby"",""Stripey""]"
"","","","","","html-slider-response","57","3877784","0.0-51.0","aoxngvrtuk","NaN","<div style=""width:500px;"">
                                <p style=""font-size:50px; font-weight:bold;""
                                ></p>
                                <div style=""width:240px; margin: auto;"">
                                    <img src=""images/D105.png"" style= ""width:200px""alt=""img"">
                                </div>
                            </div>","154","","0","images/D105.png","","","","[""Blobby"",""Stripey""]"
"","","","","","html-slider-response","58","3881709","0.0-52.0","aoxngvrtuk","NaN","<div style=""width:500px;"">
                                <p style=""font-size:50px; font-weight:bold;""
                                ></p>
                                <div style=""width:240px; margin: auto;"">
                                    <img src=""images/D87.png"" style= ""width:200px""alt=""img"">
                                </div>
                            </div>","-49","","0","images/D87.png","","","","[""Blobby"",""Stripey""]"
"","","","","","html-slider-response","59","3886880","0.0-53.0","aoxngvrtuk","NaN","<div style=""width:500px;"">
                                <p style=""font-size:50px; font-weight:bold;""
                                ></p>
                                <div style=""width:240px; margin: auto;"">
                                    <img src=""images/D9.png"" style= ""width:200px""alt=""img"">
                                </div>
                            </div>","-195","","0","images/D9.png","","","","[""Blobby"",""Stripey""]"
"","","","","","html-slider-response","60","3889415","0.0-54.0","aoxngvrtuk","NaN","<div style=""width:500px;"">
                                <p style=""font-size:50px; font-weight:bold;""
                                ></p>
                                <div style=""width:240px; margin: auto;"">
                                    <img src=""images/D56.png"" style= ""width:200px""alt=""img"">
                                </div>
                            </div>","170","","0","images/D56.png","","","","[""Blobby"",""Stripey""]"
"","","","","","html-slider-response","61","3892636","0.0-55.0","aoxngvrtuk","NaN","<div style=""width:500px;"">
                                <p style=""font-size:50px; font-weight:bold;""
                                ></p>
                                <div style=""width:240px; margin: auto;"">
                                    <img src=""images/D75.png"" style= ""width:200px""alt=""img"">
                                </div>
                            </div>","-200","","0","images/D75.png","","","","[""Blobby"",""Stripey""]"
"","","","","","html-slider-response","62","3895400","0.0-56.0","aoxngvrtuk","NaN","<div style=""width:500px;"">
                                <p style=""font-size:50px; font-weight:bold;""
                                ></p>
                                <div style=""width:240px; margin: auto;"">
                                    <img src=""images/D53.png"" style= ""width:200px""alt=""img"">
                                </div>
                            </div>","56","","0","images/D53.png","","","","[""Blobby"",""Stripey""]"
"","","","","","html-slider-response","63","3899167","0.0-57.0","aoxngvrtuk","NaN","<div style=""width:500px;"">
                                <p style=""font-size:50px; font-weight:bold;""
                                ></p>
                                <div style=""width:240px; margin: auto;"">
                                    <img src=""images/D46.png"" style= ""width:200px""alt=""img"">
                                </div>
                            </div>","-35","","0","images/D46.png","","","","[""Blobby"",""Stripey""]"
"","","","","","html-slider-response","64","3901585","0.0-58.0","aoxngvrtuk","NaN","<div style=""width:500px;"">
                                <p style=""font-size:50px; font-weight:bold;""
                                ></p>
                                <div style=""width:240px; margin: auto;"">
                                    <img src=""images/D48.png"" style= ""width:200px""alt=""img"">
                                </div>
                            </div>","-200","","0","images/D48.png","","","","[""Blobby"",""Stripey""]"
"","","","","","html-slider-response","65","3903736","0.0-59.0","aoxngvrtuk","NaN","<div style=""width:500px;"">
                                <p style=""font-size:50px; font-weight:bold;""
                                ></p>
                                <div style=""width:240px; margin: auto;"">
                                    <img src=""images/D78.png"" style= ""width:200px""alt=""img"">
                                </div>
                            </div>","40","","0","images/D78.png","","","","[""Blobby"",""Stripey""]"
"","","","","","html-slider-response","66","3906106","0.0-60.0","aoxngvrtuk","NaN","<div style=""width:500px;"">
                                <p style=""font-size:50px; font-weight:bold;""
                                ></p>
                                <div style=""width:240px; margin: auto;"">
                                    <img src=""images/D47.png"" style= ""width:200px""alt=""img"">
                                </div>
                            </div>","45","","0","images/D47.png","","","","[""Blobby"",""Stripey""]"
"","","","","","html-slider-response","67","3908868","0.0-61.0","aoxngvrtuk","NaN","<div style=""width:500px;"">
                                <p style=""font-size:50px; font-weight:bold;""
                                ></p>
                                <div style=""width:240px; margin: auto;"">
                                    <img src=""images/D24.png"" style= ""width:200px""alt=""img"">
                                </div>
                            </div>","102","","0","images/D24.png","","","","[""Blobby"",""Stripey""]"
"","","","","","html-slider-response","68","3911295","0.0-62.0","aoxngvrtuk","NaN","<div style=""width:500px;"">
                                <p style=""font-size:50px; font-weight:bold;""
                                ></p>
                                <div style=""width:240px; margin: auto;"">
                                    <img src=""images/D74.png"" style= ""width:200px""alt=""img"">
                                </div>
                            </div>","-200","","0","images/D74.png","","","","[""Blobby"",""Stripey""]"
"","","","","","html-slider-response","69","3913581","0.0-63.0","aoxngvrtuk","NaN","<div style=""width:500px;"">
                                <p style=""font-size:50px; font-weight:bold;""
                                ></p>
                                <div style=""width:240px; margin: auto;"">
                                    <img src=""images/D52.png"" style= ""width:200px""alt=""img"">
                                </div>
                            </div>","46","","0","images/D52.png","","","","[""Blobby"",""Stripey""]"
"","","","","","html-slider-response","70","3919282","0.0-64.0","aoxngvrtuk","NaN","<div style=""width:500px;"">
                                <p style=""font-size:50px; font-weight:bold;""
                                ></p>
                                <div style=""width:240px; margin: auto;"">
                                    <img src=""images/D65.png"" style= ""width:200px""alt=""img"">
                                </div>
                            </div>","37","","0","images/D65.png","","","","[""Blobby"",""Stripey""]"
"","","","","","html-slider-response","71","3922584","0.0-65.0","aoxngvrtuk","NaN","<div style=""width:500px;"">
                                <p style=""font-size:50px; font-weight:bold;""
                                ></p>
                                <div style=""width:240px; margin: auto;"">
                                    <img src=""images/D1.png"" style= ""width:200px""alt=""img"">
                                </div>
                            </div>","69","","0","images/D1.png","","","","[""Blobby"",""Stripey""]"
"","","","","","html-slider-response","72","3925050","0.0-66.0","aoxngvrtuk","NaN","<div style=""width:500px;"">
                                <p style=""font-size:50px; font-weight:bold;""
                                ></p>
                                <div style=""width:240px; margin: auto;"">
                                    <img src=""images/D37.png"" style= ""width:200px""alt=""img"">
                                </div>
                            </div>","57","","0","images/D37.png","","","","[""Blobby"",""Stripey""]"
"","","","","","html-slider-response","73","3927032","0.0-67.0","aoxngvrtuk","NaN","<div style=""width:500px;"">
                                <p style=""font-size:50px; font-weight:bold;""
                                ></p>
                                <div style=""width:240px; margin: auto;"">
                                    <img src=""images/D83.png"" style= ""width:200px""alt=""img"">
                                </div>
                            </div>","50","","0","images/D83.png","","","","[""Blobby"",""Stripey""]"
"","","","","","html-slider-response","74","3930118","0.0-68.0","aoxngvrtuk","NaN","<div style=""width:500px;"">
                                <p style=""font-size:50px; font-weight:bold;""
                                ></p>
                                <div style=""width:240px; margin: auto;"">
                                    <img src=""images/D95.png"" style= ""width:200px""alt=""img"">
                                </div>
                            </div>","110","","0","images/D95.png","","","","[""Blobby"",""Stripey""]"
"","","","","","html-slider-response","75","3933122","0.0-69.0","aoxngvrtuk","NaN","<div style=""width:500px;"">
                                <p style=""font-size:50px; font-weight:bold;""
                                ></p>
                                <div style=""width:240px; margin: auto;"">
                                    <img src=""images/D36.png"" style= ""width:200px""alt=""img"">
                                </div>
                            </div>","-171","","0","images/D36.png","","","","[""Blobby"",""Stripey""]"
"","","","","","html-slider-response","76","3935461","0.0-70.0","aoxngvrtuk","NaN","<div style=""width:500px;"">
                                <p style=""font-size:50px; font-weight:bold;""
                                ></p>
                                <div style=""width:240px; margin: auto;"">
                                    <img src=""images/D51.png"" style= ""width:200px""alt=""img"">
                                </div>
                            </div>","107","","0","images/D51.png","","","","[""Blobby"",""Stripey""]"
"","","","","","html-slider-response","77","3938960","0.0-71.0","aoxngvrtuk","NaN","<div style=""width:500px;"">
                                <p style=""font-size:50px; font-weight:bold;""
                                ></p>
                                <div style=""width:240px; margin: auto;"">
                                    <img src=""images/D8.png"" style= ""width:200px""alt=""img"">
                                </div>
                            </div>","-124","","0","images/D8.png","","","","[""Blobby"",""Stripey""]"
"","","","","","html-slider-response","78","3941100","0.0-72.0","aoxngvrtuk","NaN","<div style=""width:500px;"">
                                <p style=""font-size:50px; font-weight:bold;""
                                ></p>
                                <div style=""width:240px; margin: auto;"">
                                    <img src=""images/D32.png"" style= ""width:200px""alt=""img"">
                                </div>
                            </div>","-200","","0","images/D32.png","","","","[""Blobby"",""Stripey""]"
"","","","","","html-slider-response","79","3944958","0.0-73.0","aoxngvrtuk","NaN","<div style=""width:500px;"">
                                <p style=""font-size:50px; font-weight:bold;""
                                ></p>
                                <div style=""width:240px; margin: auto;"">
                                    <img src=""images/D21.png"" style= ""width:200px""alt=""img"">
                                </div>
                            </div>","42","","0","images/D21.png","","","","[""Blobby"",""Stripey""]"
"","","","","","html-slider-response","80","3947527","0.0-74.0","aoxngvrtuk","NaN","<div style=""width:500px;"">
                                <p style=""font-size:50px; font-weight:bold;""
                                ></p>
                                <div style=""width:240px; margin: auto;"">
                                    <img src=""images/D49.png"" style= ""width:200px""alt=""img"">
                                </div>
                            </div>","200","","0","images/D49.png","","","","[""Blobby"",""Stripey""]"
"","","","","","html-slider-response","81","3950584","0.0-75.0","aoxngvrtuk","NaN","<div style=""width:500px;"">
                                <p style=""font-size:50px; font-weight:bold;""
                                ></p>
                                <div style=""width:240px; margin: auto;"">
                                    <img src=""images/D4.png"" style= ""width:200px""alt=""img"">
                                </div>
                            </div>","-200","","0","images/D4.png","","","","[""Blobby"",""Stripey""]"
"","","","","","html-button-response","82","4093748","0.0-76.0","aoxngvrtuk","142661","You have completed the first block of trials out of six. Please click 'Continue' when you are ready proceed.","0","","","","","","",""
"","","","","","html-button-response","83","4110689","0.0-77.0","aoxngvrtuk","16938","In the following trials, you will be asked to rate textures on the scale <b>Coarse</b> versus <b>Fine</b>. Please click 'Continue' when you are ready proceed.","0","","","","","","",""
"","","","","","html-slider-response","84","4115106","0.0-78.0","aoxngvrtuk","NaN","<div style=""width:500px;"">
                                <p style=""font-size:50px; font-weight:bold;""
                                ></p>
                                <div style=""width:240px; margin: auto;"">
                                    <img src=""images/D3.png"" style= ""width:200px""alt=""img"">
                                </div>
                            </div>","-35","","0","images/D3.png","","","","[""Coarse"",""Fine""]"
"","","","","","html-slider-response","85","4118015","0.0-79.0","aoxngvrtuk","NaN","<div style=""width:500px;"">
                                <p style=""font-size:50px; font-weight:bold;""
                                ></p>
                                <div style=""width:240px; margin: auto;"">
                                    <img src=""images/D84.png"" style= ""width:200px""alt=""img"">
                                </div>
                            </div>","-31","","0","images/D84.png","","","","[""Coarse"",""Fine""]"
"","","","","","html-slider-response","86","4120798","0.0-80.0","aoxngvrtuk","NaN","<div style=""width:500px;"">
                                <p style=""font-size:50px; font-weight:bold;""
                                ></p>
                                <div style=""width:240px; margin: auto;"">
                                    <img src=""images/D101.png"" style= ""width:200px""alt=""img"">
                                </div>
                            </div>","38","","0","images/D101.png","","","","[""Coarse"",""Fine""]"
"","","","","","html-slider-response","87","4123448","0.0-81.0","aoxngvrtuk","NaN","<div style=""width:500px;"">
                                <p style=""font-size:50px; font-weight:bold;""
                                ></p>
                                <div style=""width:240px; margin: auto;"">
                                    <img src=""images/D26.png"" style= ""width:200px""alt=""img"">
                                </div>
                            </div>","-47","","0","images/D26.png","","","","[""Coarse"",""Fine""]"
"","","","","","html-slider-response","88","4127234","0.0-82.0","aoxngvrtuk","NaN","<div style=""width:500px;"">
                                <p style=""font-size:50px; font-weight:bold;""
                                ></p>
                                <div style=""width:240px; margin: auto;"">
                                    <img src=""images/D79.png"" style= ""width:200px""alt=""img"">
                                </div>
                            </div>","94","","0","images/D79.png","","","","[""Coarse"",""Fine""]"
"","","","","","html-slider-response","89","4130832","0.0-83.0","aoxngvrtuk","NaN","<div style=""width:500px;"">
                                <p style=""font-size:50px; font-weight:bold;""
                                ></p>
                                <div style=""width:240px; margin: auto;"">
                                    <img src=""images/D76.png"" style= ""width:200px""alt=""img"">
                                </div>
                            </div>","96","","0","images/D76.png","","","","[""Coarse"",""Fine""]"
"","","","","","html-slider-response","90","4134614","0.0-84.0","aoxngvrtuk","NaN","<div style=""width:500px;"">
                                <p style=""font-size:50px; font-weight:bold;""
                                ></p>
                                <div style=""width:240px; margin: auto;"">
                                    <img src=""images/D64.png"" style= ""width:200px""alt=""img"">
                                </div>
                            </div>","54","","0","images/D64.png","","","","[""Coarse"",""Fine""]"
"","","","","","html-slider-response","91","4139766","0.0-85.0","aoxngvrtuk","NaN","<div style=""width:500px;"">
                                <p style=""font-size:50px; font-weight:bold;""
                                ></p>
                                <div style=""width:240px; margin: auto;"">
                                    <img src=""images/D17.png"" style= ""width:200px""alt=""img"">
                                </div>
                            </div>","181","","0","images/D17.png","","","","[""Coarse"",""Fine""]"
"","","","","","html-slider-response","92","4142149","0.0-86.0","aoxngvrtuk","NaN","<div style=""width:500px;"">
                                <p style=""font-size:50px; font-weight:bold;""
                                ></p>
                                <div style=""width:240px; margin: auto;"">
                                    <img src=""images/D102.png"" style= ""width:200px""alt=""img"">
                                </div>
                            </div>","-89","","0","images/D102.png","","","","[""Coarse"",""Fine""]"
"","","","","","html-slider-response","93","4145565","0.0-87.0","aoxngvrtuk","NaN","<div style=""width:500px;"">
                                <p style=""font-size:50px; font-weight:bold;""
                                ></p>
                                <div style=""width:240px; margin: auto;"">
                                    <img src=""images/D6.png"" style= ""width:200px""alt=""img"">
                                </div>
                            </div>","121","","0","images/D6.png","","","","[""Coarse"",""Fine""]"
"","","","","","html-slider-response","94","4149249","0.0-88.0","aoxngvrtuk","NaN","<div style=""width:500px;"">
                                <p style=""font-size:50px; font-weight:bold;""
                                ></p>
                                <div style=""width:240px; margin: auto;"">
                                    <img src=""images/D29.png"" style= ""width:200px""alt=""img"">
                                </div>
                            </div>","-48","","0","images/D29.png","","","","[""Coarse"",""Fine""]"
"","","","","","html-slider-response","95","4154748","0.0-89.0","aoxngvrtuk","NaN","<div style=""width:500px;"">
                                <p style=""font-size:50px; font-weight:bold;""
                                ></p>
                                <div style=""width:240px; margin: auto;"">
                                    <img src=""images/D14.png"" style= ""width:200px""alt=""img"">
                                </div>
                            </div>","167","","0","images/D14.png","","","","[""Coarse"",""Fine""]"
"","","","","","html-slider-response","96","4157913","0.0-90.0","aoxngvrtuk","NaN","<div style=""width:500px;"">
                                <p style=""font-size:50px; font-weight:bold;""
                                ></p>
                                <div style=""width:240px; margin: auto;"">
                                    <img src=""images/D80.png"" style= ""width:200px""alt=""img"">
                                </div>
                            </div>","61","","0","images/D80.png","","","","[""Coarse"",""Fine""]"
"","","","","","html-slider-response","97","4161147","0.0-91.0","aoxngvrtuk","NaN","<div style=""width:500px;"">
                                <p style=""font-size:50px; font-weight:bold;""
                                ></p>
                                <div style=""width:240px; margin: auto;"">
                                    <img src=""images/D11.png"" style= ""width:200px""alt=""img"">
                                </div>
                            </div>","-82","","0","images/D11.png","","","","[""Coarse"",""Fine""]"
"","","","","","html-slider-response","98","4163297","0.0-92.0","aoxngvrtuk","NaN","<div style=""width:500px;"">
                                <p style=""font-size:50px; font-weight:bold;""
                                ></p>
                                <div style=""width:240px; margin: auto;"">
                                    <img src=""images/D55.png"" style= ""width:200px""alt=""img"">
                                </div>
                            </div>","96","","0","images/D55.png","","","","[""Coarse"",""Fine""]"
"","","","","","html-slider-response","99","4166447","0.0-93.0","aoxngvrtuk","NaN","<div style=""width:500px;"">
                                <p style=""font-size:50px; font-weight:bold;""
                                ></p>
                                <div style=""width:240px; margin: auto;"">
                                    <img src=""images/D68.png"" style= ""width:200px""alt=""img"">
                                </div>
                            </div>","54","","0","images/D68.png","","","","[""Coarse"",""Fine""]"
"","","","","","html-slider-response","100","4168363","0.0-94.0","aoxngvrtuk","NaN","<div style=""width:500px;"">
                                <p style=""font-size:50px; font-weight:bold;""
                                ></p>
                                <div style=""width:240px; margin: auto;"">
                                    <img src=""images/D96.png"" style= ""width:200px""alt=""img"">
                                </div>
                            </div>","-176","","0","images/D96.png","","","","[""Coarse"",""Fine""]"
"","","","","","html-slider-response","101","4170444","0.0-95.0","aoxngvrtuk","NaN","<div style=""width:500px;"">
                                <p style=""font-size:50px; font-weight:bold;""
                                ></p>
                                <div style=""width:240px; margin: auto;"">
                                    <img src=""images/D25.png"" style= ""width:200px""alt=""img"">
                                </div>
                            </div>","-180","","0","images/D25.png","","","","[""Coarse"",""Fine""]"
"","","","","","html-slider-response","102","4173147","0.0-96.0","aoxngvrtuk","NaN","<div style=""width:500px;"">
                                <p style=""font-size:50px; font-weight:bold;""
                                ></p>
                                <div style=""width:240px; margin: auto;"">
                                    <img src=""images/D35.png"" style= ""width:200px""alt=""img"">
                                </div>
                            </div>","-41","","0","images/D35.png","","","","[""Coarse"",""Fine""]"
"","","","","","html-slider-response","103","4175180","0.0-97.0","aoxngvrtuk","NaN","<div style=""width:500px;"">
                                <p style=""font-size:50px; font-weight:bold;""
                                ></p>
                                <div style=""width:240px; margin: auto;"">
                                    <img src=""images/D22.png"" style= ""width:200px""alt=""img"">
                                </div>
                            </div>","39","","0","images/D22.png","","","","[""Coarse"",""Fine""]"
"","","","","","html-slider-response","104","4177830","0.0-98.0","aoxngvrtuk","NaN","<div style=""width:500px;"">
                                <p style=""font-size:50px; font-weight:bold;""
                                ></p>
                                <div style=""width:240px; margin: auto;"">
                                    <img src=""images/D103.png"" style= ""width:200px""alt=""img"">
                                </div>
                            </div>","102","","0","images/D103.png","","","","[""Coarse"",""Fine""]"
"","","","","","html-slider-response","105","4180260","0.0-99.0","aoxngvrtuk","NaN","<div style=""width:500px;"">
                                <p style=""font-size:50px; font-weight:bold;""
                                ></p>
                                <div style=""width:240px; margin: auto;"">
                                    <img src=""images/D57.png"" style= ""width:200px""alt=""img"">
                                </div>
                            </div>","-42","","0","images/D57.png","","","","[""Coarse"",""Fine""]"
"","","","","","html-slider-response","106","4183261","0.0-100.0","aoxngvrtuk","NaN","<div style=""width:500px;"">
                                <p style=""font-size:50px; font-weight:bold;""
                                ></p>
                                <div style=""width:240px; margin: auto;"">
                                    <img src=""images/D19.png"" style= ""width:200px""alt=""img"">
                                </div>
                            </div>","-144","","0","images/D19.png","","","","[""Coarse"",""Fine""]"
"","","","","","html-slider-response","107","4186398","0.0-101.0","aoxngvrtuk","NaN","<div style=""width:500px;"">
                                <p style=""font-size:50px; font-weight:bold;""
                                ></p>
                                <div style=""width:240px; margin: auto;"">
                                    <img src=""images/D106.png"" style= ""width:200px""alt=""img"">
                                </div>
                            </div>","123","","0","images/D106.png","","","","[""Coarse"",""Fine""]"
"","","","","","html-slider-response","108","4188465","0.0-102.0","aoxngvrtuk","NaN","<div style=""width:500px;"">
                                <p style=""font-size:50px; font-weight:bold;""
                                ></p>
                                <div style=""width:240px; margin: auto;"">
                                    <img src=""images/D85.png"" style= ""width:200px""alt=""img"">
                                </div>
                            </div>","86","","0","images/D85.png","","","","[""Coarse"",""Fine""]"
"","","","","","html-slider-response","109","4191066","0.0-103.0","aoxngvrtuk","NaN","<div style=""width:500px;"">
                                <p style=""font-size:50px; font-weight:bold;""
                                ></p>
                                <div style=""width:240px; margin: auto;"">
                                    <img src=""images/D82.png"" style= ""width:200px""alt=""img"">
                                </div>
                            </div>","86","","0","images/D82.png","","","","[""Coarse"",""Fine""]"
"","","","","","html-slider-response","110","4193348","0.0-104.0","aoxngvrtuk","NaN","<div style=""width:500px;"">
                                <p style=""font-size:50px; font-weight:bold;""
                                ></p>
                                <div style=""width:240px; margin: auto;"">
                                    <img src=""images/D111.png"" style= ""width:200px""alt=""img"">
                                </div>
                            </div>","-118","","0","images/D111.png","","","","[""Coarse"",""Fine""]"
"","","","","","html-slider-response","111","4196165","0.0-105.0","aoxngvrtuk","NaN","<div style=""width:500px;"">
                                <p style=""font-size:50px; font-weight:bold;""
                                ></p>
                                <div style=""width:240px; margin: auto;"">
                                    <img src=""images/D92.png"" style= ""width:200px""alt=""img"">
                                </div>
                            </div>","-162","","0","images/D92.png","","","","[""Coarse"",""Fine""]"
"","","","","","html-slider-response","112","4198730","0.0-106.0","aoxngvrtuk","NaN","<div style=""width:500px;"">
                                <p style=""font-size:50px; font-weight:bold;""
                                ></p>
                                <div style=""width:240px; margin: auto;"">
                                    <img src=""images/D16.png"" style= ""width:200px""alt=""img"">
                                </div>
                            </div>","181","","0","images/D16.png","","","","[""Coarse"",""Fine""]"
"","","","","","html-slider-response","113","4200814","0.0-107.0","aoxngvrtuk","NaN","<div style=""width:500px;"">
                                <p style=""font-size:50px; font-weight:bold;""
                                ></p>
                                <div style=""width:240px; margin: auto;"">
                                    <img src=""images/D104.png"" style= ""width:200px""alt=""img"">
                                </div>
                            </div>","200","","0","images/D104.png","","","","[""Coarse"",""Fine""]"
"","","","","","html-slider-response","114","4202897","0.0-108.0","aoxngvrtuk","NaN","<div style=""width:500px;"">
                                <p style=""font-size:50px; font-weight:bold;""
                                ></p>
                                <div style=""width:240px; margin: auto;"">
                                    <img src=""images/D81.png"" style= ""width:200px""alt=""img"">
                                </div>
                            </div>","200","","0","images/D81.png","","","","[""Coarse"",""Fine""]"
"","","","","","html-slider-response","115","4205299","0.0-109.0","aoxngvrtuk","NaN","<div style=""width:500px;"">
                                <p style=""font-size:50px; font-weight:bold;""
                                ></p>
                                <div style=""width:240px; margin: auto;"">
                                    <img src=""images/D94.png"" style= ""width:200px""alt=""img"">
                                </div>
                            </div>","-200","","0","images/D94.png","","","","[""Coarse"",""Fine""]"
"","","","","","html-slider-response","116","4210432","0.0-110.0","aoxngvrtuk","NaN","<div style=""width:500px;"">
                                <p style=""font-size:50px; font-weight:bold;""
                                ></p>
                                <div style=""width:240px; margin: auto;"">
                                    <img src=""images/D18.png"" style= ""width:200px""alt=""img"">
                                </div>
                            </div>","-80","","0","images/D18.png","","","","[""Coarse"",""Fine""]"
"","","","","","html-slider-response","117","4212682","0.0-111.0","aoxngvrtuk","NaN","<div style=""width:500px;"">
                                <p style=""font-size:50px; font-weight:bold;""
                                ></p>
                                <div style=""width:240px; margin: auto;"">
                                    <img src=""images/D20.png"" style= ""width:200px""alt=""img"">
                                </div>
                            </div>","-42","","0","images/D20.png","","","","[""Coarse"",""Fine""]"
"","","","","","html-slider-response","118","4214648","0.0-112.0","aoxngvrtuk","NaN","<div style=""width:500px;"">
                                <p style=""font-size:50px; font-weight:bold;""
                                ></p>
                                <div style=""width:240px; margin: auto;"">
                                    <img src=""images/D66.png"" style= ""width:200px""alt=""img"">
                                </div>
                            </div>","-36","","0","images/D66.png","","","","[""Coarse"",""Fine""]"
"","","","","","html-slider-response","119","4219157","0.0-113.0","aoxngvrtuk","NaN","<div style=""width:500px;"">
                                <p style=""font-size:50px; font-weight:bold;""
                                ></p>
                                <div style=""width:240px; margin: auto;"">
                                    <img src=""images/D34.png"" style= ""width:200px""alt=""img"">
                                </div>
                            </div>","-22","","0","images/D34.png","","","","[""Coarse"",""Fine""]"
"","","","","","html-slider-response","120","4223273","0.0-114.0","aoxngvrtuk","NaN","<div style=""width:500px;"">
                                <p style=""font-size:50px; font-weight:bold;""
                                ></p>
                                <div style=""width:240px; margin: auto;"">
                                    <img src=""images/D77.png"" style= ""width:200px""alt=""img"">
                                </div>
                            </div>","115","","0","images/D77.png","","","","[""Coarse"",""Fine""]"
"","","","","","html-slider-response","121","4225514","0.0-115.0","aoxngvrtuk","NaN","<div style=""width:500px;"">
                                <p style=""font-size:50px; font-weight:bold;""
                                ></p>
                                <div style=""width:240px; margin: auto;"">
                                    <img src=""images/D105.png"" style= ""width:200px""alt=""img"">
                                </div>
                            </div>","152","","0","images/D105.png","","","","[""Coarse"",""Fine""]"
"","","","","","html-slider-response","122","4228779","0.0-116.0","aoxngvrtuk","NaN","<div style=""width:500px;"">
                                <p style=""font-size:50px; font-weight:bold;""
                                ></p>
                                <div style=""width:240px; margin: auto;"">
                                    <img src=""images/D87.png"" style= ""width:200px""alt=""img"">
                                </div>
                            </div>","-50","","0","images/D87.png","","","","[""Coarse"",""Fine""]"
"","","","","","html-slider-response","123","4231036","0.0-117.0","aoxngvrtuk","NaN","<div style=""width:500px;"">
                                <p style=""font-size:50px; font-weight:bold;""
                                ></p>
                                <div style=""width:240px; margin: auto;"">
                                    <img src=""images/D9.png"" style= ""width:200px""alt=""img"">
                                </div>
                            </div>","-105","","0","images/D9.png","","","","[""Coarse"",""Fine""]"
"","","","","","html-slider-response","124","4232879","0.0-118.0","aoxngvrtuk","NaN","<div style=""width:500px;"">
                                <p style=""font-size:50px; font-weight:bold;""
                                ></p>
                                <div style=""width:240px; margin: auto;"">
                                    <img src=""images/D56.png"" style= ""width:200px""alt=""img"">
                                </div>
                            </div>","102","","0","images/D56.png","","","","[""Coarse"",""Fine""]"
"","","","","","html-slider-response","125","4235146","0.0-119.0","aoxngvrtuk","NaN","<div style=""width:500px;"">
                                <p style=""font-size:50px; font-weight:bold;""
                                ></p>
                                <div style=""width:240px; margin: auto;"">
                                    <img src=""images/D75.png"" style= ""width:200px""alt=""img"">
                                </div>
                            </div>","58","","0","images/D75.png","","","","[""Coarse"",""Fine""]"
"","","","","","html-slider-response","126","4237437","0.0-120.0","aoxngvrtuk","NaN","<div style=""width:500px;"">
                                <p style=""font-size:50px; font-weight:bold;""
                                ></p>
                                <div style=""width:240px; margin: auto;"">
                                    <img src=""images/D53.png"" style= ""width:200px""alt=""img"">
                                </div>
                            </div>","168","","0","images/D53.png","","","","[""Coarse"",""Fine""]"
"","","","","","html-slider-response","127","4239496","0.0-121.0","aoxngvrtuk","NaN","<div style=""width:500px;"">
                                <p style=""font-size:50px; font-weight:bold;""
                                ></p>
                                <div style=""width:240px; margin: auto;"">
                                    <img src=""images/D46.png"" style= ""width:200px""alt=""img"">
                                </div>
                            </div>","-90","","0","images/D46.png","","","","[""Coarse"",""Fine""]"
"","","","","","html-slider-response","128","4242330","0.0-122.0","aoxngvrtuk","NaN","<div style=""width:500px;"">
                                <p style=""font-size:50px; font-weight:bold;""
                                ></p>
                                <div style=""width:240px; margin: auto;"">
                                    <img src=""images/D48.png"" style= ""width:200px""alt=""img"">
                                </div>
                            </div>","-99","","0","images/D48.png","","","","[""Coarse"",""Fine""]"
"","","","","","html-slider-response","129","4244507","0.0-123.0","aoxngvrtuk","NaN","<div style=""width:500px;"">
                                <p style=""font-size:50px; font-weight:bold;""
                                ></p>
                                <div style=""width:240px; margin: auto;"">
                                    <img src=""images/D78.png"" style= ""width:200px""alt=""img"">
                                </div>
                            </div>","168","","0","images/D78.png","","","","[""Coarse"",""Fine""]"
"","","","","","html-slider-response","130","4248094","0.0-124.0","aoxngvrtuk","NaN","<div style=""width:500px;"">
                                <p style=""font-size:50px; font-weight:bold;""
                                ></p>
                                <div style=""width:240px; margin: auto;"">
                                    <img src=""images/D47.png"" style= ""width:200px""alt=""img"">
                                </div>
                            </div>","65","","0","images/D47.png","","","","[""Coarse"",""Fine""]"
"","","","","","html-slider-response","131","4251649","0.0-125.0","aoxngvrtuk","NaN","<div style=""width:500px;"">
                                <p style=""font-size:50px; font-weight:bold;""
                                ></p>
                                <div style=""width:240px; margin: auto;"">
                                    <img src=""images/D24.png"" style= ""width:200px""alt=""img"">
                                </div>
                            </div>","117","","0","images/D24.png","","","","[""Coarse"",""Fine""]"
"","","","","","html-slider-response","132","4254560","0.0-126.0","aoxngvrtuk","NaN","<div style=""width:500px;"">
                                <p style=""font-size:50px; font-weight:bold;""
                                ></p>
                                <div style=""width:240px; margin: auto;"">
                                    <img src=""images/D74.png"" style= ""width:200px""alt=""img"">
                                </div>
                            </div>","-63","","0","images/D74.png","","","","[""Coarse"",""Fine""]"
"","","","","","html-slider-response","133","4256330","0.0-127.0","aoxngvrtuk","NaN","<div style=""width:500px;"">
                                <p style=""font-size:50px; font-weight:bold;""
                                ></p>
                                <div style=""width:240px; margin: auto;"">
                                    <img src=""images/D52.png"" style= ""width:200px""alt=""img"">
                                </div>
                            </div>","54","","0","images/D52.png","","","","[""Coarse"",""Fine""]"
"","","","","","html-slider-response","134","4258186","0.0-128.0","aoxngvrtuk","NaN","<div style=""width:500px;"">
                                <p style=""font-size:50px; font-weight:bold;""
                                ></p>
                                <div style=""width:240px; margin: auto;"">
                                    <img src=""images/D65.png"" style= ""width:200px""alt=""img"">
                                </div>
                            </div>","112","","0","images/D65.png","","","","[""Coarse"",""Fine""]"
"","","","","","html-slider-response","135","4259994","0.0-129.0","aoxngvrtuk","NaN","<div style=""width:500px;"">
                                <p style=""font-size:50px; font-weight:bold;""
                                ></p>
                                <div style=""width:240px; margin: auto;"">
                                    <img src=""images/D1.png"" style= ""width:200px""alt=""img"">
                                </div>
                            </div>","-112","","0","images/D1.png","","","","[""Coarse"",""Fine""]"
"","","","","","html-slider-response","136","4262110","0.0-130.0","aoxngvrtuk","NaN","<div style=""width:500px;"">
                                <p style=""font-size:50px; font-weight:bold;""
                                ></p>
                                <div style=""width:240px; margin: auto;"">
                                    <img src=""images/D37.png"" style= ""width:200px""alt=""img"">
                                </div>
                            </div>","-166","","0","images/D37.png","","","","[""Coarse"",""Fine""]"
"","","","","","html-slider-response","137","4266184","0.0-131.0","aoxngvrtuk","NaN","<div style=""width:500px;"">
                                <p style=""font-size:50px; font-weight:bold;""
                                ></p>
                                <div style=""width:240px; margin: auto;"">
                                    <img src=""images/D83.png"" style= ""width:200px""alt=""img"">
                                </div>
                            </div>","61","","0","images/D83.png","","","","[""Coarse"",""Fine""]"
"","","","","","html-slider-response","138","4268112","0.0-132.0","aoxngvrtuk","NaN","<div style=""width:500px;"">
                                <p style=""font-size:50px; font-weight:bold;""
                                ></p>
                                <div style=""width:240px; margin: auto;"">
                                    <img src=""images/D95.png"" style= ""width:200px""alt=""img"">
                                </div>
                            </div>","-50","","0","images/D95.png","","","","[""Coarse"",""Fine""]"
"","","","","","html-slider-response","139","4270342","0.0-133.0","aoxngvrtuk","NaN","<div style=""width:500px;"">
                                <p style=""font-size:50px; font-weight:bold;""
                                ></p>
                                <div style=""width:240px; margin: auto;"">
                                    <img src=""images/D36.png"" style= ""width:200px""alt=""img"">
                                </div>
                            </div>","-54","","0","images/D36.png","","","","[""Coarse"",""Fine""]"
"","","","","","html-slider-response","140","4272789","0.0-134.0","aoxngvrtuk","NaN","<div style=""width:500px;"">
                                <p style=""font-size:50px; font-weight:bold;""
                                ></p>
                                <div style=""width:240px; margin: auto;"">
                                    <img src=""images/D51.png"" style= ""width:200px""alt=""img"">
                                </div>
                            </div>","101","","0","images/D51.png","","","","[""Coarse"",""Fine""]"
"","","","","","html-slider-response","141","4276660","0.0-135.0","aoxngvrtuk","NaN","<div style=""width:500px;"">
                                <p style=""font-size:50px; font-weight:bold;""
                                ></p>
                                <div style=""width:240px; margin: auto;"">
                                    <img src=""images/D8.png"" style= ""width:200px""alt=""img"">
                                </div>
                            </div>","128","","0","images/D8.png","","","","[""Coarse"",""Fine""]"
"","","","","","html-slider-response","142","4278812","0.0-136.0","aoxngvrtuk","NaN","<div style=""width:500px;"">
                                <p style=""font-size:50px; font-weight:bold;""
                                ></p>
                                <div style=""width:240px; margin: auto;"">
                                    <img src=""images/D32.png"" style= ""width:200px""alt=""img"">
                                </div>
                            </div>","-113","","0","images/D32.png","","","","[""Coarse"",""Fine""]"
"","","","","","html-slider-response","143","4280746","0.0-137.0","aoxngvrtuk","NaN","<div style=""width:500px;"">
                                <p style=""font-size:50px; font-weight:bold;""
                                ></p>
                                <div style=""width:240px; margin: auto;"">
                                    <img src=""images/D21.png"" style= ""width:200px""alt=""img"">
                                </div>
                            </div>","200","","0","images/D21.png","","","","[""Coarse"",""Fine""]"
"","","","","","html-slider-response","144","4283121","0.0-138.0","aoxngvrtuk","NaN","<div style=""width:500px;"">
                                <p style=""font-size:50px; font-weight:bold;""
                                ></p>
                                <div style=""width:240px; margin: auto;"">
                                    <img src=""images/D49.png"" style= ""width:200px""alt=""img"">
                                </div>
                            </div>","200","","0","images/D49.png","","","","[""Coarse"",""Fine""]"
"","","","","","html-slider-response","145","4285091","0.0-139.0","aoxngvrtuk","NaN","<div style=""width:500px;"">
                                <p style=""font-size:50px; font-weight:bold;""
                                ></p>
                                <div style=""width:240px; margin: auto;"">
                                    <img src=""images/D4.png"" style= ""width:200px""alt=""img"">
                                </div>
                            </div>","-114","","0","images/D4.png","","","","[""Coarse"",""Fine""]"
"","","","","","html-button-response","146","4289462","0.0-140.0","aoxngvrtuk","3865","You have completed the second block of trials out of six. Please click 'Continue' when you are ready proceed.","0","","","","","","",""
"","","","","","html-button-response","147","4291110","0.0-141.0","aoxngvrtuk","1646","In the following trials, you will be asked to rate textures on the scale <b>Hard</b> versus <b>Soft</b>. Please click 'Continue' when you are ready proceed.","0","","","","","","",""
"","","","","","html-slider-response","148","4292562","0.0-142.0","aoxngvrtuk","NaN","<div style=""width:500px;"">
                                <p style=""font-size:50px; font-weight:bold;""
                                ></p>
                                <div style=""width:240px; margin: auto;"">
                                    <img src=""images/D26.png"" style= ""width:200px""alt=""img"">
                                </div>
                            </div>","-195","","0","images/D26.png","","","","[""Hard"",""Soft""]"
"","","","","","html-slider-response","149","4294612","0.0-143.0","aoxngvrtuk","NaN","<div style=""width:500px;"">
                                <p style=""font-size:50px; font-weight:bold;""
                                ></p>
                                <div style=""width:240px; margin: auto;"">
                                    <img src=""images/D65.png"" style= ""width:200px""alt=""img"">
                                </div>
                            </div>","72","","0","images/D65.png","","","","[""Hard"",""Soft""]"
"","","","","","html-slider-response","150","4296945","0.0-144.0","aoxngvrtuk","NaN","<div style=""width:500px;"">
                                <p style=""font-size:50px; font-weight:bold;""
                                ></p>
                                <div style=""width:240px; margin: auto;"">
                                    <img src=""images/D21.png"" style= ""width:200px""alt=""img"">
                                </div>
                            </div>","146","","0","images/D21.png","","","","[""Hard"",""Soft""]"
"","","","","","html-slider-response","151","4299363","0.0-145.0","aoxngvrtuk","NaN","<div style=""width:500px;"">
                                <p style=""font-size:50px; font-weight:bold;""
                                ></p>
                                <div style=""width:240px; margin: auto;"">
                                    <img src=""images/D18.png"" style= ""width:200px""alt=""img"">
                                </div>
                            </div>","27","","0","images/D18.png","","","","[""Hard"",""Soft""]"
"","","","","","html-slider-response","152","4301328","0.0-146.0","aoxngvrtuk","NaN","<div style=""width:500px;"">
                                <p style=""font-size:50px; font-weight:bold;""
                                ></p>
                                <div style=""width:240px; margin: auto;"">
                                    <img src=""images/D77.png"" style= ""width:200px""alt=""img"">
                                </div>
                            </div>","168","","0","images/D77.png","","","","[""Hard"",""Soft""]"
"","","","","","html-slider-response","153","4304377","0.0-147.0","aoxngvrtuk","NaN","<div style=""width:500px;"">
                                <p style=""font-size:50px; font-weight:bold;""
                                ></p>
                                <div style=""width:240px; margin: auto;"">
                                    <img src=""images/D68.png"" style= ""width:200px""alt=""img"">
                                </div>
                            </div>","67","","0","images/D68.png","","","","[""Hard"",""Soft""]"
"","","","","","html-slider-response","154","4308214","0.0-148.0","aoxngvrtuk","NaN","<div style=""width:500px;"">
                                <p style=""font-size:50px; font-weight:bold;""
                                ></p>
                                <div style=""width:240px; margin: auto;"">
                                    <img src=""images/D11.png"" style= ""width:200px""alt=""img"">
                                </div>
                            </div>","-128","","0","images/D11.png","","","","[""Hard"",""Soft""]"
"","","","","","html-slider-response","155","4310626","0.0-149.0","aoxngvrtuk","NaN","<div style=""width:500px;"">
                                <p style=""font-size:50px; font-weight:bold;""
                                ></p>
                                <div style=""width:240px; margin: auto;"">
                                    <img src=""images/D9.png"" style= ""width:200px""alt=""img"">
                                </div>
                            </div>","-139","","0","images/D9.png","","","","[""Hard"",""Soft""]"
"","","","","","html-slider-response","156","4312618","0.0-150.0","aoxngvrtuk","NaN","<div style=""width:500px;"">
                                <p style=""font-size:50px; font-weight:bold;""
                                ></p>
                                <div style=""width:240px; margin: auto;"">
                                    <img src=""images/D22.png"" style= ""width:200px""alt=""img"">
                                </div>
                            </div>","88","","0","images/D22.png","","","","[""Hard"",""Soft""]"
"","","","","","html-slider-response","157","4315114","0.0-151.0","aoxngvrtuk","NaN","<div style=""width:500px;"">
                                <p style=""font-size:50px; font-weight:bold;""
                                ></p>
                                <div style=""width:240px; margin: auto;"">
                                    <img src=""images/D35.png"" style= ""width:200px""alt=""img"">
                                </div>
                            </div>","64","","0","images/D35.png","","","","[""Hard"",""Soft""]"
"","","","","","html-slider-response","158","4318246","0.0-152.0","aoxngvrtuk","NaN","<div style=""width:500px;"">
                                <p style=""font-size:50px; font-weight:bold;""
                                ></p>
                                <div style=""width:240px; margin: auto;"">
                                    <img src=""images/D32.png"" style= ""width:200px""alt=""img"">
                                </div>
                            </div>","-113","","0","images/D32.png","","","","[""Hard"",""Soft""]"
"","","","","","html-slider-response","159","4319912","0.0-153.0","aoxngvrtuk","NaN","<div style=""width:500px;"">
                                <p style=""font-size:50px; font-weight:bold;""
                                ></p>
                                <div style=""width:240px; margin: auto;"">
                                    <img src=""images/D37.png"" style= ""width:200px""alt=""img"">
                                </div>
                            </div>","-94","","0","images/D37.png","","","","[""Hard"",""Soft""]"
"","","","","","html-slider-response","160","4321443","0.0-154.0","aoxngvrtuk","NaN","<div style=""width:500px;"">
                                <p style=""font-size:50px; font-weight:bold;""
                                ></p>
                                <div style=""width:240px; margin: auto;"">
                                    <img src=""images/D19.png"" style= ""width:200px""alt=""img"">
                                </div>
                            </div>","-170","","0","images/D19.png","","","","[""Hard"",""Soft""]"
"","","","","","html-slider-response","161","4323011","0.0-155.0","aoxngvrtuk","NaN","<div style=""width:500px;"">
                                <p style=""font-size:50px; font-weight:bold;""
                                ></p>
                                <div style=""width:240px; margin: auto;"">
                                    <img src=""images/D4.png"" style= ""width:200px""alt=""img"">
                                </div>
                            </div>","-200","","0","images/D4.png","","","","[""Hard"",""Soft""]"
"","","","","","html-slider-response","162","4324645","0.0-156.0","aoxngvrtuk","NaN","<div style=""width:500px;"">
                                <p style=""font-size:50px; font-weight:bold;""
                                ></p>
                                <div style=""width:240px; margin: auto;"">
                                    <img src=""images/D29.png"" style= ""width:200px""alt=""img"">
                                </div>
                            </div>","-200","","0","images/D29.png","","","","[""Hard"",""Soft""]"
"","","","","","html-slider-response","163","4327413","0.0-157.0","aoxngvrtuk","NaN","<div style=""width:500px;"">
                                <p style=""font-size:50px; font-weight:bold;""
                                ></p>
                                <div style=""width:240px; margin: auto;"">
                                    <img src=""images/D101.png"" style= ""width:200px""alt=""img"">
                                </div>
                            </div>","143","","0","images/D101.png","","","","[""Hard"",""Soft""]"
"","","","","","html-slider-response","164","4329196","0.0-158.0","aoxngvrtuk","NaN","<div style=""width:500px;"">
                                <p style=""font-size:50px; font-weight:bold;""
                                ></p>
                                <div style=""width:240px; margin: auto;"">
                                    <img src=""images/D8.png"" style= ""width:200px""alt=""img"">
                                </div>
                            </div>","139","","0","images/D8.png","","","","[""Hard"",""Soft""]"
"","","","","","html-slider-response","165","4331763","0.0-159.0","aoxngvrtuk","NaN","<div style=""width:500px;"">
                                <p style=""font-size:50px; font-weight:bold;""
                                ></p>
                                <div style=""width:240px; margin: auto;"">
                                    <img src=""images/D84.png"" style= ""width:200px""alt=""img"">
                                </div>
                            </div>","-117","","0","images/D84.png","","","","[""Hard"",""Soft""]"
"","","","","","html-slider-response","166","4334862","0.0-160.0","aoxngvrtuk","NaN","<div style=""width:500px;"">
                                <p style=""font-size:50px; font-weight:bold;""
                                ></p>
                                <div style=""width:240px; margin: auto;"">
                                    <img src=""images/D106.png"" style= ""width:200px""alt=""img"">
                                </div>
                            </div>","-171","","0","images/D106.png","","","","[""Hard"",""Soft""]"
"","","","","","html-slider-response","167","4336579","0.0-161.0","aoxngvrtuk","NaN","<div style=""width:500px;"">
                                <p style=""font-size:50px; font-weight:bold;""
                                ></p>
                                <div style=""width:240px; margin: auto;"">
                                    <img src=""images/D46.png"" style= ""width:200px""alt=""img"">
                                </div>
                            </div>","177","","0","images/D46.png","","","","[""Hard"",""Soft""]"
"","","","","","html-slider-response","168","4339320","0.0-162.0","aoxngvrtuk","NaN","<div style=""width:500px;"">
                                <p style=""font-size:50px; font-weight:bold;""
                                ></p>
                                <div style=""width:240px; margin: auto;"">
                                    <img src=""images/D85.png"" style= ""width:200px""alt=""img"">
                                </div>
                            </div>","-6","","0","images/D85.png","","","","[""Hard"",""Soft""]"
"","","","","","html-slider-response","169","4341812","0.0-163.0","aoxngvrtuk","NaN","<div style=""width:500px;"">
                                <p style=""font-size:50px; font-weight:bold;""
                                ></p>
                                <div style=""width:240px; margin: auto;"">
                                    <img src=""images/D105.png"" style= ""width:200px""alt=""img"">
                                </div>
                            </div>","97","","0","images/D105.png","","","","[""Hard"",""Soft""]"
"","","","","","html-slider-response","170","4343835","0.0-164.0","aoxngvrtuk","NaN","<div style=""width:500px;"">
                                <p style=""font-size:50px; font-weight:bold;""
                                ></p>
                                <div style=""width:240px; margin: auto;"">
                                    <img src=""images/D49.png"" style= ""width:200px""alt=""img"">
                                </div>
                            </div>","194","","0","images/D49.png","","","","[""Hard"",""Soft""]"
"","","","","","html-slider-response","171","4347122","0.0-165.0","aoxngvrtuk","NaN","<div style=""width:500px;"">
                                <p style=""font-size:50px; font-weight:bold;""
                                ></p>
                                <div style=""width:240px; margin: auto;"">
                                    <img src=""images/D36.png"" style= ""width:200px""alt=""img"">
                                </div>
                            </div>","53","","0","images/D36.png","","","","[""Hard"",""Soft""]"
"","","","","","html-slider-response","172","4348657","0.0-166.0","aoxngvrtuk","NaN","<div style=""width:500px;"">
                                <p style=""font-size:50px; font-weight:bold;""
                                ></p>
                                <div style=""width:240px; margin: auto;"">
                                    <img src=""images/D74.png"" style= ""width:200px""alt=""img"">
                                </div>
                            </div>","98","","0","images/D74.png","","","","[""Hard"",""Soft""]"
"","","","","","html-slider-response","173","4351344","0.0-167.0","aoxngvrtuk","NaN","<div style=""width:500px;"">
                                <p style=""font-size:50px; font-weight:bold;""
                                ></p>
                                <div style=""width:240px; margin: auto;"">
                                    <img src=""images/D24.png"" style= ""width:200px""alt=""img"">
                                </div>
                            </div>","-158","","0","images/D24.png","","","","[""Hard"",""Soft""]"
"","","","","","html-slider-response","174","4353162","0.0-168.0","aoxngvrtuk","NaN","<div style=""width:500px;"">
                                <p style=""font-size:50px; font-weight:bold;""
                                ></p>
                                <div style=""width:240px; margin: auto;"">
                                    <img src=""images/D52.png"" style= ""width:200px""alt=""img"">
                                </div>
                            </div>","141","","0","images/D52.png","","","","[""Hard"",""Soft""]"
"","","","","","html-slider-response","175","4355944","0.0-169.0","aoxngvrtuk","NaN","<div style=""width:500px;"">
                                <p style=""font-size:50px; font-weight:bold;""
                                ></p>
                                <div style=""width:240px; margin: auto;"">
                                    <img src=""images/D66.png"" style= ""width:200px""alt=""img"">
                                </div>
                            </div>","32","","0","images/D66.png","","","","[""Hard"",""Soft""]"
"","","","","","html-slider-response","176","4358505","0.0-170.0","aoxngvrtuk","NaN","<div style=""width:500px;"">
                                <p style=""font-size:50px; font-weight:bold;""
                                ></p>
                                <div style=""width:240px; margin: auto;"">
                                    <img src=""images/D92.png"" style= ""width:200px""alt=""img"">
                                </div>
                            </div>","-170","","0","images/D92.png","","","","[""Hard"",""Soft""]"
"","","","","","html-slider-response","177","4362141","0.0-171.0","aoxngvrtuk","NaN","<div style=""width:500px;"">
                                <p style=""font-size:50px; font-weight:bold;""
                                ></p>
                                <div style=""width:240px; margin: auto;"">
                                    <img src=""images/D64.png"" style= ""width:200px""alt=""img"">
                                </div>
                            </div>","112","","0","images/D64.png","","","","[""Hard"",""Soft""]"
"","","","","","html-slider-response","178","4364097","0.0-172.0","aoxngvrtuk","NaN","<div style=""width:500px;"">
                                <p style=""font-size:50px; font-weight:bold;""
                                ></p>
                                <div style=""width:240px; margin: auto;"">
                                    <img src=""images/D103.png"" style= ""width:200px""alt=""img"">
                                </div>
                            </div>","90","","0","images/D103.png","","","","[""Hard"",""Soft""]"
"","","","","","html-slider-response","179","4366240","0.0-173.0","aoxngvrtuk","NaN","<div style=""width:500px;"">
                                <p style=""font-size:50px; font-weight:bold;""
                                ></p>
                                <div style=""width:240px; margin: auto;"">
                                    <img src=""images/D34.png"" style= ""width:200px""alt=""img"">
                                </div>
                            </div>","41","","0","images/D34.png","","","","[""Hard"",""Soft""]"
"","","","","","html-slider-response","180","4368311","0.0-174.0","aoxngvrtuk","NaN","<div style=""width:500px;"">
                                <p style=""font-size:50px; font-weight:bold;""
                                ></p>
                                <div style=""width:240px; margin: auto;"">
                                    <img src=""images/D55.png"" style= ""width:200px""alt=""img"">
                                </div>
                            </div>","155","","0","images/D55.png","","","","[""Hard"",""Soft""]"
"","","","","","html-slider-response","181","4371349","0.0-175.0","aoxngvrtuk","NaN","<div style=""width:500px;"">
                                <p style=""font-size:50px; font-weight:bold;""
                                ></p>
                                <div style=""width:240px; margin: auto;"">
                                    <img src=""images/D79.png"" style= ""width:200px""alt=""img"">
                                </div>
                            </div>","90","","0","images/D79.png","","","","[""Hard"",""Soft""]"
"","","","","","html-slider-response","182","4375023","0.0-176.0","aoxngvrtuk","NaN","<div style=""width:500px;"">
                                <p style=""font-size:50px; font-weight:bold;""
                                ></p>
                                <div style=""width:240px; margin: auto;"">
                                    <img src=""images/D20.png"" style= ""width:200px""alt=""img"">
                                </div>
                            </div>","61","","0","images/D20.png","","","","[""Hard"",""Soft""]"
"","","","","","html-slider-response","183","4378144","0.0-177.0","aoxngvrtuk","NaN","<div style=""width:500px;"">
                                <p style=""font-size:50px; font-weight:bold;""
                                ></p>
                                <div style=""width:240px; margin: auto;"">
                                    <img src=""images/D95.png"" style= ""width:200px""alt=""img"">
                                </div>
                            </div>","-177","","0","images/D95.png","","","","[""Hard"",""Soft""]"
"","","","","","html-slider-response","184","4380642","0.0-178.0","aoxngvrtuk","NaN","<div style=""width:500px;"">
                                <p style=""font-size:50px; font-weight:bold;""
                                ></p>
                                <div style=""width:240px; margin: auto;"">
                                    <img src=""images/D14.png"" style= ""width:200px""alt=""img"">
                                </div>
                            </div>","48","","0","images/D14.png","","","","[""Hard"",""Soft""]"
"","","","","","html-slider-response","185","4382525","0.0-179.0","aoxngvrtuk","NaN","<div style=""width:500px;"">
                                <p style=""font-size:50px; font-weight:bold;""
                                ></p>
                                <div style=""width:240px; margin: auto;"">
                                    <img src=""images/D81.png"" style= ""width:200px""alt=""img"">
                                </div>
                            </div>","95","","0","images/D81.png","","","","[""Hard"",""Soft""]"
"","","","","","html-slider-response","186","4389928","0.0-180.0","aoxngvrtuk","NaN","<div style=""width:500px;"">
                                <p style=""font-size:50px; font-weight:bold;""
                                ></p>
                                <div style=""width:240px; margin: auto;"">
                                    <img src=""images/D17.png"" style= ""width:200px""alt=""img"">
                                </div>
                            </div>","115","","0","images/D17.png","","","","[""Hard"",""Soft""]"
"","","","","","html-slider-response","187","4392227","0.0-181.0","aoxngvrtuk","NaN","<div style=""width:500px;"">
                                <p style=""font-size:50px; font-weight:bold;""
                                ></p>
                                <div style=""width:240px; margin: auto;"">
                                    <img src=""images/D96.png"" style= ""width:200px""alt=""img"">
                                </div>
                            </div>","-156","","0","images/D96.png","","","","[""Hard"",""Soft""]"
"","","","","","html-slider-response","188","4394966","0.0-182.0","aoxngvrtuk","NaN","<div style=""width:500px;"">
