"success","timeout","failed_images","failed_audio","failed_video","trial_type","trial_index","time_elapsed","internal_node_id","subject_id","rt","stimulus","response","question_order","slider_start","image_path","practiceTrial","practiceTrialNum","correct","slider_labels"
"true","false","[]","[]","[]","preload","0","278","0.0-0.0","b6ypn0yjc1","","","","","","","","","",""
"","","","","","html-button-response","1","12037","0.0-1.0","b6ypn0yjc1","11757","<div style='text-align:center; font-size:20px; line-height:25px; width: 1200px;'>
                Welcome to our experiment! <br>
                <br>At the bottom of this screen, you will see a button that says 'Begin Experiment.
                <br>Please only click that button when you are ready to complete the 25 minute experiment in one sitting. <br>
                <br> Once you click that button, it will not be possible to restart the experiment. <br><br>","0","","","","","","",""
"true","","","","","fullscreen","2","15798","0.0-2.0","b6ypn0yjc1","2758","","","","","","","","",""
"","","","","","survey-multi-select","3","48056","0.0-3.0","b6ypn0yjc1","32256","","{""Consent"":[""<strong>I consent</strong>""]}","[0]","","","","","",""
"","","","","","html-button-response","4","52087","0.0-4.0","b6ypn0yjc1","4030","Welcome! <p> This experiment involves two parts: demographic information, followed by the experimental task.<p> It will take about 25 minutes to complete both parts.","0","","","","","","",""
"","","","","","survey-text","5","60095","0.0-5.0","b6ypn0yjc1","7996","","{""Age"":""18"",""Gender"":""female "",""Race/ethnicity"":""white""}","","","","","","",""
"","","","","","html-slider-response","6","79085","0.0-6.0","b6ypn0yjc1","18988","
                <div style='text-align:center; height: auto; margin-left=-100px; margin-bottom: -20px; font-size:20px; line-height:5px; width: 1200px;'>
                    <br>During this experiment, you will see a series of textures, one at a time, like the ones below: 
                </div>
                    <br>
                    <br>
                    <img src=""anchoring_visual_textures.png"" alt=""img"" style=""max-width:1200px; margin-left: -10px;"">
                </div>
                <div style=""clear: both;""></div>
                </div>
                    <div style='text-align:center; margin-left=-100px; font-size:20px; line-height:20px; width: 1200px; margin-top: -50px;'>
                    
                    <br> For each texture, you will be asked to rate where you think it falls on each of the response scales with the following endpoints:
                    </div>
                            <div style=""text-align: center; width: 1400px; "">
                                <p style=""font-size:20px; line-height:5px; ""><b>Stripey</b> versus <b>Blobby</b></p>
                                <p style=""font-size:20px; line-height:5px; ""><b>Rectangular</b> versus <b>Rounded</b></p>
                                <p style=""font-size:20px;line-height:5px;""><b>Fine</b> versus <b>Coarse</b></p>
                                <p style=""font-size:20px;line-height:5px; ""><b>Smooth</b> versus <b>Rough</b></p>
                                <p style=""font-size:20px;line-height:5px; ""><b>Non-Random</b> versus <b>Random</b></p>
                                <p style=""font-size:20px;line-height:5px;""><b>Soft</b> versus <b>Hard</b></p>
                            </div>
                            <div style='text-align:center; font-size:20px; line-height:20px; width: 1400px;'>
                    
                    Each trial will include one texture and one response scale. You will be asked to make your rating by sliding the cursor along a slider response scale like the one below.
                    <br><br> Before beginning, please look at the textures and scales. For each scale, think about the texture you associate most with the left endpoint. When you see that texture for that response scale, please click near the left of the scale.
                    <br><br> Now, please think about the texture you associate most with the right endpoint of each scale. When you see that texture for that response scale, please click near the right of the scale. 
                    <br><br> If you think a texture is not strongly associated with either endpoint of the scale, please click near the midpoint of the scale. Please use the full range of the scale. 
                    <br><br> You will be asked to rate each texture for a given scale before moving on to the next scale.
                    <br><br> Please press the 'Continue' button for instructions on how to use the slider.                     <br><br>
                ","1","","0","visual_textures_anchoring.png","true","","",""
"","","","","","html-button-response","7","84528","0.0-7.0","b6ypn0yjc1","5442","<div style=""width:1200px; margin-top:-150px;""><p style=""text-align:center; font-size:24px;"">To move the slider, click and drag your cursor to the location of the scale where you would like to make your rating and then let go. <br><br> When you let go of the slider, your response will be recorded and the next trial will begin. <br><br><br>
                We are interested in your initial impressions of each texture and scale, so please go with your first intuition. <br><br>
                Before you begin the experiment, there will be four training trials for you to practice using the scale. <br><br><br><br></div>
                <div style=""width:1200px;""><p style=""text-align:center; font-size:20px;"">When you are ready to start the training trials, please click ""Continue"".</p></div>","0","","","","","","",""
"","","","","","html-slider-response","8","88342","0.0-8.0-0.0","b6ypn0yjc1","NaN","<div style=""width:500px;"">
                                <p style=""font-size:25px;"">Please move the slider all the way to the <br> right endpoint of the scale</p>

                                </div>
                            </div>","200","","0","","true","0","true",""
"","","","","","html-button-response","9","90152","0.0-8.0-1.0","b6ypn0yjc1","1308","<p align='center'><b>Good job!</b> Click on 'Continue' to proceed.</p>","0","","","","","","",""
"","","","","","html-slider-response","10","91981","0.0-9.0-0.0","b6ypn0yjc1","NaN","<div style=""width:500px;"">
                                <p style=""font-size:25px;"">Please move the slider all the way to the <br> left endpoint of the scale</p>

                                </div>
                            </div>","-200","","0","","true","1","true",""
"","","","","","html-button-response","11","93403","0.0-9.0-1.0","b6ypn0yjc1","920","<p align='center'><b>Good job!</b> Click on 'Continue' to proceed.</p>","0","","","","","","",""
"","","","","","html-slider-response","12","99899","0.0-10.0-0.0","b6ypn0yjc1","NaN","<div style=""width:500px;"">
                                <p style=""font-size:25px;"">Please move the slider halfway between the center and right endpoint of the scale</p>

                                </div>
                            </div>","107","","0","","true","2","true",""
"","","","","","html-button-response","13","101352","0.0-10.0-1.0","b6ypn0yjc1","951","<p align='center'><b>Good job!</b> Click on 'Continue' to proceed.</p>","0","","","","","","",""
"","","","","","html-slider-response","14","106275","0.0-11.0-0.0","b6ypn0yjc1","NaN","<div style=""width:500px;"">
                                <p style=""font-size:25px;"">Please move the slider halfway between the center and left endpoint of the scale</p>

                                </div>
                            </div>","-114","","0","","true","3","false",""
"","","","","","html-button-response","15","109603","0.0-11.0-1.0","b6ypn0yjc1","2827","<p align='center'><b>Not quite!</b> The slider was not placed near the instructed locattion. Click on 'Continue' to try again. </p>","0","","","","","","",""
"","","","","","html-slider-response","16","118836","0.0-11.1-0.1","b6ypn0yjc1","NaN","<div style=""width:500px;"">
                                <p style=""font-size:25px;"">Please move the slider halfway between the center and left endpoint of the scale</p>

                                </div>
                            </div>","-110","","0","","true","3","true",""
"","","","","","html-button-response","17","120574","0.0-11.1-1.1","b6ypn0yjc1","1236","<p align='center'><b>Good job!</b> Click on 'Continue' to proceed.</p>","0","","","","","","",""
"","","","","","html-button-response","18","124121","0.0-12.0","b6ypn0yjc1","3545","<div style=""width:800px; margin-top:-300px;""><p style=""text-align:center; font-size:22px; line-height:25px;""""> Great job! You've completed the practice trials.</div>
                     <div style=""width:800px; margin-top:-20px;""><p style=""text-align:center""><br><br> In the following trials, you will be asked to rate textures on each scale one-by-one. <br> You will be given opportunities to take breaks when you have completed each block of trials. There are six total blocks of trials. <br><br> Please click continue to begin the main task.<br><br><br> </div>","0","","","","","","",""
"","","","","","html-button-response","19","129228","0.0-13.0","b6ypn0yjc1","5107","In the following trials, you will be asked to rate textures on the scale <b>Stripey</b> versus <b>Blobby</b>. Please click 'Continue' when you are ready proceed.","0","","","","","","",""
"","","","","","html-slider-response","20","131959","0.0-14.0","b6ypn0yjc1","NaN","<div style=""width:500px;"">
                                <p style=""font-size:50px; font-weight:bold;""
                                ></p>
                                <div style=""width:240px; margin: auto;"">
                                    <img src=""images/D64.png"" style= ""width:200px""alt=""img"">
                                </div>
                            </div>","-200","","0","images/D64.png","","","","[""Stripey"",""Blobby""]"
"","","","","","html-slider-response","21","134839","0.0-15.0","b6ypn0yjc1","NaN","<div style=""width:500px;"">
                                <p style=""font-size:50px; font-weight:bold;""
                                ></p>
                                <div style=""width:240px; margin: auto;"">
                                    <img src=""images/D80.png"" style= ""width:200px""alt=""img"">
                                </div>
                            </div>","-200","","0","images/D80.png","","","","[""Stripey"",""Blobby""]"
"","","","","","html-slider-response","22","138153","0.0-16.0","b6ypn0yjc1","NaN","<div style=""width:500px;"">
                                <p style=""font-size:50px; font-weight:bold;""
                                ></p>
                                <div style=""width:240px; margin: auto;"">
                                    <img src=""images/D83.png"" style= ""width:200px""alt=""img"">
                                </div>
                            </div>","-46","","0","images/D83.png","","","","[""Stripey"",""Blobby""]"
"","","","","","html-slider-response","23","140827","0.0-17.0","b6ypn0yjc1","NaN","<div style=""width:500px;"">
                                <p style=""font-size:50px; font-weight:bold;""
                                ></p>
                                <div style=""width:240px; margin: auto;"">
                                    <img src=""images/D6.png"" style= ""width:200px""alt=""img"">
                                </div>
                            </div>","50","","0","images/D6.png","","","","[""Stripey"",""Blobby""]"
"","","","","","html-slider-response","24","143422","0.0-18.0","b6ypn0yjc1","NaN","<div style=""width:500px;"">
                                <p style=""font-size:50px; font-weight:bold;""
                                ></p>
                                <div style=""width:240px; margin: auto;"">
                                    <img src=""images/D85.png"" style= ""width:200px""alt=""img"">
                                </div>
                            </div>","-189","","0","images/D85.png","","","","[""Stripey"",""Blobby""]"
"","","","","","html-slider-response","25","145368","0.0-19.0","b6ypn0yjc1","NaN","<div style=""width:500px;"">
                                <p style=""font-size:50px; font-weight:bold;""
                                ></p>
                                <div style=""width:240px; margin: auto;"">
                                    <img src=""images/D32.png"" style= ""width:200px""alt=""img"">
                                </div>
                            </div>","200","","0","images/D32.png","","","","[""Stripey"",""Blobby""]"
"","","","","","html-slider-response","26","147464","0.0-20.0","b6ypn0yjc1","NaN","<div style=""width:500px;"">
                                <p style=""font-size:50px; font-weight:bold;""
                                ></p>
                                <div style=""width:240px; margin: auto;"">
                                    <img src=""images/D53.png"" style= ""width:200px""alt=""img"">
                                </div>
                            </div>","-105","","0","images/D53.png","","","","[""Stripey"",""Blobby""]"
"","","","","","html-slider-response","27","151443","0.0-21.0","b6ypn0yjc1","NaN","<div style=""width:500px;"">
                                <p style=""font-size:50px; font-weight:bold;""
                                ></p>
                                <div style=""width:240px; margin: auto;"">
                                    <img src=""images/D102.png"" style= ""width:200px""alt=""img"">
                                </div>
                            </div>","-4","","0","images/D102.png","","","","[""Stripey"",""Blobby""]"
"","","","","","html-slider-response","28","153172","0.0-22.0","b6ypn0yjc1","NaN","<div style=""width:500px;"">
                                <p style=""font-size:50px; font-weight:bold;""
                                ></p>
                                <div style=""width:240px; margin: auto;"">
                                    <img src=""images/D57.png"" style= ""width:200px""alt=""img"">
                                </div>
                            </div>","136","","0","images/D57.png","","","","[""Stripey"",""Blobby""]"
"","","","","","html-slider-response","29","155068","0.0-23.0","b6ypn0yjc1","NaN","<div style=""width:500px;"">
                                <p style=""font-size:50px; font-weight:bold;""
                                ></p>
                                <div style=""width:240px; margin: auto;"">
                                    <img src=""images/D106.png"" style= ""width:200px""alt=""img"">
                                </div>
                            </div>","-164","","0","images/D106.png","","","","[""Stripey"",""Blobby""]"
"","","","","","html-slider-response","30","157914","0.0-24.0","b6ypn0yjc1","NaN","<div style=""width:500px;"">
                                <p style=""font-size:50px; font-weight:bold;""
                                ></p>
                                <div style=""width:240px; margin: auto;"">
                                    <img src=""images/D19.png"" style= ""width:200px""alt=""img"">
                                </div>
                            </div>","-69","","0","images/D19.png","","","","[""Stripey"",""Blobby""]"
"","","","","","html-slider-response","31","159797","0.0-25.0","b6ypn0yjc1","NaN","<div style=""width:500px;"">
                                <p style=""font-size:50px; font-weight:bold;""
                                ></p>
                                <div style=""width:240px; margin: auto;"">
                                    <img src=""images/D29.png"" style= ""width:200px""alt=""img"">
                                </div>
                            </div>","200","","0","images/D29.png","","","","[""Stripey"",""Blobby""]"
"","","","","","html-slider-response","32","162155","0.0-26.0","b6ypn0yjc1","NaN","<div style=""width:500px;"">
                                <p style=""font-size:50px; font-weight:bold;""
                                ></p>
                                <div style=""width:240px; margin: auto;"">
                                    <img src=""images/D87.png"" style= ""width:200px""alt=""img"">
                                </div>
                            </div>","-123","","0","images/D87.png","","","","[""Stripey"",""Blobby""]"
"","","","","","html-slider-response","33","164710","0.0-27.0","b6ypn0yjc1","NaN","<div style=""width:500px;"">
                                <p style=""font-size:50px; font-weight:bold;""
                                ></p>
                                <div style=""width:240px; margin: auto;"">
                                    <img src=""images/D18.png"" style= ""width:200px""alt=""img"">
                                </div>
                            </div>","-10","","0","images/D18.png","","","","[""Stripey"",""Blobby""]"
"","","","","","html-slider-response","34","166973","0.0-28.0","b6ypn0yjc1","NaN","<div style=""width:500px;"">
                                <p style=""font-size:50px; font-weight:bold;""
                                ></p>
                                <div style=""width:240px; margin: auto;"">
                                    <img src=""images/D94.png"" style= ""width:200px""alt=""img"">
                                </div>
                            </div>","-200","","0","images/D94.png","","","","[""Stripey"",""Blobby""]"
"","","","","","html-slider-response","35","169148","0.0-29.0","b6ypn0yjc1","NaN","<div style=""width:500px;"">
                                <p style=""font-size:50px; font-weight:bold;""
                                ></p>
                                <div style=""width:240px; margin: auto;"">
                                    <img src=""images/D66.png"" style= ""width:200px""alt=""img"">
                                </div>
                            </div>","200","","0","images/D66.png","","","","[""Stripey"",""Blobby""]"
"","","","","","html-slider-response","36","171110","0.0-30.0","b6ypn0yjc1","NaN","<div style=""width:500px;"">
                                <p style=""font-size:50px; font-weight:bold;""
                                ></p>
                                <div style=""width:240px; margin: auto;"">
                                    <img src=""images/D47.png"" style= ""width:200px""alt=""img"">
                                </div>
                            </div>","-200","","0","images/D47.png","","","","[""Stripey"",""Blobby""]"
"","","","","","html-slider-response","37","173175","0.0-31.0","b6ypn0yjc1","NaN","<div style=""width:500px;"">
                                <p style=""font-size:50px; font-weight:bold;""
                                ></p>
                                <div style=""width:240px; margin: auto;"">
                                    <img src=""images/D16.png"" style= ""width:200px""alt=""img"">
                                </div>
                            </div>","-200","","0","images/D16.png","","","","[""Stripey"",""Blobby""]"
"","","","","","html-slider-response","38","175697","0.0-32.0","b6ypn0yjc1","NaN","<div style=""width:500px;"">
                                <p style=""font-size:50px; font-weight:bold;""
                                ></p>
                                <div style=""width:240px; margin: auto;"">
                                    <img src=""images/D4.png"" style= ""width:200px""alt=""img"">
                                </div>
                            </div>","200","","0","images/D4.png","","","","[""Stripey"",""Blobby""]"
"","","","","","html-slider-response","39","177699","0.0-33.0","b6ypn0yjc1","NaN","<div style=""width:500px;"">
                                <p style=""font-size:50px; font-weight:bold;""
                                ></p>
                                <div style=""width:240px; margin: auto;"">
                                    <img src=""images/D1.png"" style= ""width:200px""alt=""img"">
                                </div>
                            </div>","-200","","0","images/D1.png","","","","[""Stripey"",""Blobby""]"
"","","","","","html-slider-response","40","179629","0.0-34.0","b6ypn0yjc1","NaN","<div style=""width:500px;"">
                                <p style=""font-size:50px; font-weight:bold;""
                                ></p>
                                <div style=""width:240px; margin: auto;"">
                                    <img src=""images/D104.png"" style= ""width:200px""alt=""img"">
                                </div>
                            </div>","-200","","0","images/D104.png","","","","[""Stripey"",""Blobby""]"
"","","","","","html-slider-response","41","181606","0.0-35.0","b6ypn0yjc1","NaN","<div style=""width:500px;"">
                                <p style=""font-size:50px; font-weight:bold;""
                                ></p>
                                <div style=""width:240px; margin: auto;"">
                                    <img src=""images/D77.png"" style= ""width:200px""alt=""img"">
                                </div>
                            </div>","-200","","0","images/D77.png","","","","[""Stripey"",""Blobby""]"
"","","","","","html-slider-response","42","183490","0.0-36.0","b6ypn0yjc1","NaN","<div style=""width:500px;"">
                                <p style=""font-size:50px; font-weight:bold;""
                                ></p>
                                <div style=""width:240px; margin: auto;"">
                                    <img src=""images/D68.png"" style= ""width:200px""alt=""img"">
                                </div>
                            </div>","-200","","0","images/D68.png","","","","[""Stripey"",""Blobby""]"
"","","","","","html-slider-response","43","185530","0.0-37.0","b6ypn0yjc1","NaN","<div style=""width:500px;"">
                                <p style=""font-size:50px; font-weight:bold;""
                                ></p>
                                <div style=""width:240px; margin: auto;"">
                                    <img src=""images/D103.png"" style= ""width:200px""alt=""img"">
                                </div>
                            </div>","-200","","0","images/D103.png","","","","[""Stripey"",""Blobby""]"
"","","","","","html-slider-response","44","187674","0.0-38.0","b6ypn0yjc1","NaN","<div style=""width:500px;"">
                                <p style=""font-size:50px; font-weight:bold;""
                                ></p>
                                <div style=""width:240px; margin: auto;"">
                                    <img src=""images/D96.png"" style= ""width:200px""alt=""img"">
                                </div>
                            </div>","-200","","0","images/D96.png","","","","[""Stripey"",""Blobby""]"
"","","","","","html-slider-response","45","189771","0.0-39.0","b6ypn0yjc1","NaN","<div style=""width:500px;"">
                                <p style=""font-size:50px; font-weight:bold;""
                                ></p>
                                <div style=""width:240px; margin: auto;"">
                                    <img src=""images/D36.png"" style= ""width:200px""alt=""img"">
                                </div>
                            </div>","200","","0","images/D36.png","","","","[""Stripey"",""Blobby""]"
"","","","","","html-slider-response","46","192073","0.0-40.0","b6ypn0yjc1","NaN","<div style=""width:500px;"">
                                <p style=""font-size:50px; font-weight:bold;""
                                ></p>
                                <div style=""width:240px; margin: auto;"">
                                    <img src=""images/D84.png"" style= ""width:200px""alt=""img"">
                                </div>
                            </div>","-58","","0","images/D84.png","","","","[""Stripey"",""Blobby""]"
"","","","","","html-slider-response","47","193955","0.0-41.0","b6ypn0yjc1","NaN","<div style=""width:500px;"">
                                <p style=""font-size:50px; font-weight:bold;""
                                ></p>
                                <div style=""width:240px; margin: auto;"">
                                    <img src=""images/D79.png"" style= ""width:200px""alt=""img"">
                                </div>
                            </div>","-200","","0","images/D79.png","","","","[""Stripey"",""Blobby""]"
"","","","","","html-slider-response","48","196036","0.0-42.0","b6ypn0yjc1","NaN","<div style=""width:500px;"">
                                <p style=""font-size:50px; font-weight:bold;""
                                ></p>
                                <div style=""width:240px; margin: auto;"">
                                    <img src=""images/D95.png"" style= ""width:200px""alt=""img"">
                                </div>
                            </div>","-200","","0","images/D95.png","","","","[""Stripey"",""Blobby""]"
"","","","","","html-slider-response","49","197974","0.0-43.0","b6ypn0yjc1","NaN","<div style=""width:500px;"">
                                <p style=""font-size:50px; font-weight:bold;""
                                ></p>
                                <div style=""width:240px; margin: auto;"">
                                    <img src=""images/D78.png"" style= ""width:200px""alt=""img"">
                                </div>
                            </div>","-200","","0","images/D78.png","","","","[""Stripey"",""Blobby""]"
"","","","","","html-slider-response","50","199771","0.0-44.0","b6ypn0yjc1","NaN","<div style=""width:500px;"">
                                <p style=""font-size:50px; font-weight:bold;""
                                ></p>
                                <div style=""width:240px; margin: auto;"">
                                    <img src=""images/D55.png"" style= ""width:200px""alt=""img"">
                                </div>
                            </div>","-197","","0","images/D55.png","","","","[""Stripey"",""Blobby""]"
"","","","","","html-slider-response","51","201590","0.0-45.0","b6ypn0yjc1","NaN","<div style=""width:500px;"">
                                <p style=""font-size:50px; font-weight:bold;""
                                ></p>
                                <div style=""width:240px; margin: auto;"">
                                    <img src=""images/D11.png"" style= ""width:200px""alt=""img"">
                                </div>
                            </div>","-200","","0","images/D11.png","","","","[""Stripey"",""Blobby""]"
"","","","","","html-slider-response","52","203727","0.0-46.0","b6ypn0yjc1","NaN","<div style=""width:500px;"">
                                <p style=""font-size:50px; font-weight:bold;""
                                ></p>
                                <div style=""width:240px; margin: auto;"">
                                    <img src=""images/D65.png"" style= ""width:200px""alt=""img"">
                                </div>
                            </div>","-195","","0","images/D65.png","","","","[""Stripey"",""Blobby""]"
"","","","","","html-slider-response","53","206108","0.0-47.0","b6ypn0yjc1","NaN","<div style=""width:500px;"">
                                <p style=""font-size:50px; font-weight:bold;""
                                ></p>
                                <div style=""width:240px; margin: auto;"">
                                    <img src=""images/D9.png"" style= ""width:200px""alt=""img"">
                                </div>
                            </div>","194","","0","images/D9.png","","","","[""Stripey"",""Blobby""]"
"","","","","","html-slider-response","54","208322","0.0-48.0","b6ypn0yjc1","NaN","<div style=""width:500px;"">
                                <p style=""font-size:50px; font-weight:bold;""
                                ></p>
                                <div style=""width:240px; margin: auto;"">
                                    <img src=""images/D48.png"" style= ""width:200px""alt=""img"">
                                </div>
                            </div>","200","","0","images/D48.png","","","","[""Stripey"",""Blobby""]"
"","","","","","html-slider-response","55","210277","0.0-49.0","b6ypn0yjc1","NaN","<div style=""width:500px;"">
                                <p style=""font-size:50px; font-weight:bold;""
                                ></p>
                                <div style=""width:240px; margin: auto;"">
                                    <img src=""images/D105.png"" style= ""width:200px""alt=""img"">
                                </div>
                            </div>","-200","","0","images/D105.png","","","","[""Stripey"",""Blobby""]"
"","","","","","html-slider-response","56","212286","0.0-50.0","b6ypn0yjc1","NaN","<div style=""width:500px;"">
                                <p style=""font-size:50px; font-weight:bold;""
                                ></p>
                                <div style=""width:240px; margin: auto;"">
                                    <img src=""images/D76.png"" style= ""width:200px""alt=""img"">
                                </div>
                            </div>","-200","","0","images/D76.png","","","","[""Stripey"",""Blobby""]"
"","","","","","html-slider-response","57","213987","0.0-51.0","b6ypn0yjc1","NaN","<div style=""width:500px;"">
                                <p style=""font-size:50px; font-weight:bold;""
                                ></p>
                                <div style=""width:240px; margin: auto;"">
                                    <img src=""images/D82.png"" style= ""width:200px""alt=""img"">
                                </div>
                            </div>","-6","","0","images/D82.png","","","","[""Stripey"",""Blobby""]"
"","","","","","html-slider-response","58","215980","0.0-52.0","b6ypn0yjc1","NaN","<div style=""width:500px;"">
                                <p style=""font-size:50px; font-weight:bold;""
                                ></p>
                                <div style=""width:240px; margin: auto;"">
                                    <img src=""images/D34.png"" style= ""width:200px""alt=""img"">
                                </div>
                            </div>","200","","0","images/D34.png","","","","[""Stripey"",""Blobby""]"
"","","","","","html-slider-response","59","219485","0.0-53.0","b6ypn0yjc1","NaN","<div style=""width:500px;"">
                                <p style=""font-size:50px; font-weight:bold;""
                                ></p>
                                <div style=""width:240px; margin: auto;"">
                                    <img src=""images/D52.png"" style= ""width:200px""alt=""img"">
                                </div>
                            </div>","-2","","0","images/D52.png","","","","[""Stripey"",""Blobby""]"
"","","","","","html-slider-response","60","221027","0.0-54.0","b6ypn0yjc1","NaN","<div style=""width:500px;"">
                                <p style=""font-size:50px; font-weight:bold;""
                                ></p>
                                <div style=""width:240px; margin: auto;"">
                                    <img src=""images/D51.png"" style= ""width:200px""alt=""img"">
                                </div>
                            </div>","-200","","0","images/D51.png","","","","[""Stripey"",""Blobby""]"
"","","","","","html-slider-response","61","223250","0.0-55.0","b6ypn0yjc1","NaN","<div style=""width:500px;"">
                                <p style=""font-size:50px; font-weight:bold;""
                                ></p>
                                <div style=""width:240px; margin: auto;"">
                                    <img src=""images/D35.png"" style= ""width:200px""alt=""img"">
                                </div>
                            </div>","200","","0","images/D35.png","","","","[""Stripey"",""Blobby""]"
"","","","","","html-slider-response","62","225070","0.0-56.0","b6ypn0yjc1","NaN","<div style=""width:500px;"">
                                <p style=""font-size:50px; font-weight:bold;""
                                ></p>
                                <div style=""width:240px; margin: auto;"">
                                    <img src=""images/D24.png"" style= ""width:200px""alt=""img"">
                                </div>
                            </div>","200","","0","images/D24.png","","","","[""Stripey"",""Blobby""]"
"","","","","","html-slider-response","63","227577","0.0-57.0","b6ypn0yjc1","NaN","<div style=""width:500px;"">
                                <p style=""font-size:50px; font-weight:bold;""
                                ></p>
                                <div style=""width:240px; margin: auto;"">
                                    <img src=""images/D17.png"" style= ""width:200px""alt=""img"">
                                </div>
                            </div>","-200","","0","images/D17.png","","","","[""Stripey"",""Blobby""]"
"","","","","","html-slider-response","64","229744","0.0-58.0","b6ypn0yjc1","NaN","<div style=""width:500px;"">
                                <p style=""font-size:50px; font-weight:bold;""
                                ></p>
                                <div style=""width:240px; margin: auto;"">
                                    <img src=""images/D25.png"" style= ""width:200px""alt=""img"">
                                </div>
                            </div>","-195","","0","images/D25.png","","","","[""Stripey"",""Blobby""]"
"","","","","","html-slider-response","65","231635","0.0-59.0","b6ypn0yjc1","NaN","<div style=""width:500px;"">
                                <p style=""font-size:50px; font-weight:bold;""
                                ></p>
                                <div style=""width:240px; margin: auto;"">
                                    <img src=""images/D26.png"" style= ""width:200px""alt=""img"">
                                </div>
                            </div>","-200","","0","images/D26.png","","","","[""Stripey"",""Blobby""]"
"","","","","","html-slider-response","66","233691","0.0-60.0","b6ypn0yjc1","NaN","<div style=""width:500px;"">
                                <p style=""font-size:50px; font-weight:bold;""
                                ></p>
                                <div style=""width:240px; margin: auto;"">
                                    <img src=""images/D111.png"" style= ""width:200px""alt=""img"">
                                </div>
                            </div>","200","","0","images/D111.png","","","","[""Stripey"",""Blobby""]"
"","","","","","html-slider-response","67","236041","0.0-61.0","b6ypn0yjc1","NaN","<div style=""width:500px;"">
                                <p style=""font-size:50px; font-weight:bold;""
                                ></p>
                                <div style=""width:240px; margin: auto;"">
                                    <img src=""images/D20.png"" style= ""width:200px""alt=""img"">
                                </div>
                            </div>","-200","","0","images/D20.png","","","","[""Stripey"",""Blobby""]"
"","","","","","html-slider-response","68","237940","0.0-62.0","b6ypn0yjc1","NaN","<div style=""width:500px;"">
                                <p style=""font-size:50px; font-weight:bold;""
                                ></p>
                                <div style=""width:240px; margin: auto;"">
                                    <img src=""images/D56.png"" style= ""width:200px""alt=""img"">
                                </div>
                            </div>","-200","","0","images/D56.png","","","","[""Stripey"",""Blobby""]"
"","","","","","html-slider-response","69","239791","0.0-63.0","b6ypn0yjc1","NaN","<div style=""width:500px;"">
                                <p style=""font-size:50px; font-weight:bold;""
                                ></p>
                                <div style=""width:240px; margin: auto;"">
                                    <img src=""images/D101.png"" style= ""width:200px""alt=""img"">
                                </div>
                            </div>","-200","","0","images/D101.png","","","","[""Stripey"",""Blobby""]"
"","","","","","html-slider-response","70","242464","0.0-64.0","b6ypn0yjc1","NaN","<div style=""width:500px;"">
                                <p style=""font-size:50px; font-weight:bold;""
                                ></p>
                                <div style=""width:240px; margin: auto;"">
                                    <img src=""images/D75.png"" style= ""width:200px""alt=""img"">
                                </div>
                            </div>","200","","0","images/D75.png","","","","[""Stripey"",""Blobby""]"
"","","","","","html-slider-response","71","244671","0.0-65.0","b6ypn0yjc1","NaN","<div style=""width:500px;"">
                                <p style=""font-size:50px; font-weight:bold;""
                                ></p>
                                <div style=""width:240px; margin: auto;"">
                                    <img src=""images/D81.png"" style= ""width:200px""alt=""img"">
                                </div>
                            </div>","200","","0","images/D81.png","","","","[""Stripey"",""Blobby""]"
"","","","","","html-slider-response","72","247329","0.0-66.0","b6ypn0yjc1","NaN","<div style=""width:500px;"">
                                <p style=""font-size:50px; font-weight:bold;""
                                ></p>
                                <div style=""width:240px; margin: auto;"">
                                    <img src=""images/D46.png"" style= ""width:200px""alt=""img"">
                                </div>
                            </div>","-200","","0","images/D46.png","","","","[""Stripey"",""Blobby""]"
"","","","","","html-slider-response","73","249663","0.0-67.0","b6ypn0yjc1","NaN","<div style=""width:500px;"">
                                <p style=""font-size:50px; font-weight:bold;""
                                ></p>
                                <div style=""width:240px; margin: auto;"">
                                    <img src=""images/D37.png"" style= ""width:200px""alt=""img"">
                                </div>
                            </div>","-200","","0","images/D37.png","","","","[""Stripey"",""Blobby""]"
"","","","","","html-slider-response","74","251411","0.0-68.0","b6ypn0yjc1","NaN","<div style=""width:500px;"">
                                <p style=""font-size:50px; font-weight:bold;""
                                ></p>
                                <div style=""width:240px; margin: auto;"">
                                    <img src=""images/D92.png"" style= ""width:200px""alt=""img"">
                                </div>
                            </div>","200","","0","images/D92.png","","","","[""Stripey"",""Blobby""]"
"","","","","","html-slider-response","75","253809","0.0-69.0","b6ypn0yjc1","NaN","<div style=""width:500px;"">
                                <p style=""font-size:50px; font-weight:bold;""
                                ></p>
                                <div style=""width:240px; margin: auto;"">
                                    <img src=""images/D14.png"" style= ""width:200px""alt=""img"">
                                </div>
                            </div>","-200","","0","images/D14.png","","","","[""Stripey"",""Blobby""]"
"","","","","","html-slider-response","76","256213","0.0-70.0","b6ypn0yjc1","NaN","<div style=""width:500px;"">
                                <p style=""font-size:50px; font-weight:bold;""
                                ></p>
                                <div style=""width:240px; margin: auto;"">
                                    <img src=""images/D21.png"" style= ""width:200px""alt=""img"">
                                </div>
                            </div>","-198","","0","images/D21.png","","","","[""Stripey"",""Blobby""]"
"","","","","","html-slider-response","77","259322","0.0-71.0","b6ypn0yjc1","NaN","<div style=""width:500px;"">
                                <p style=""font-size:50px; font-weight:bold;""
                                ></p>
                                <div style=""width:240px; margin: auto;"">
                                    <img src=""images/D74.png"" style= ""width:200px""alt=""img"">
                                </div>
                            </div>","197","","0","images/D74.png","","","","[""Stripey"",""Blobby""]"
"","","","","","html-slider-response","78","261529","0.0-72.0","b6ypn0yjc1","NaN","<div style=""width:500px;"">
                                <p style=""font-size:50px; font-weight:bold;""
                                ></p>
                                <div style=""width:240px; margin: auto;"">
                                    <img src=""images/D49.png"" style= ""width:200px""alt=""img"">
                                </div>
                            </div>","-200","","0","images/D49.png","","","","[""Stripey"",""Blobby""]"
"","","","","","html-slider-response","79","264812","0.0-73.0","b6ypn0yjc1","NaN","<div style=""width:500px;"">
                                <p style=""font-size:50px; font-weight:bold;""
                                ></p>
                                <div style=""width:240px; margin: auto;"">
                                    <img src=""images/D8.png"" style= ""width:200px""alt=""img"">
                                </div>
                            </div>","34","","0","images/D8.png","","","","[""Stripey"",""Blobby""]"
"","","","","","html-slider-response","80","268317","0.0-74.0","b6ypn0yjc1","NaN","<div style=""width:500px;"">
                                <p style=""font-size:50px; font-weight:bold;""
                                ></p>
                                <div style=""width:240px; margin: auto;"">
                                    <img src=""images/D3.png"" style= ""width:200px""alt=""img"">
                                </div>
                            </div>","3","","0","images/D3.png","","","","[""Stripey"",""Blobby""]"
"","","","","","html-slider-response","81","270334","0.0-75.0","b6ypn0yjc1","NaN","<div style=""width:500px;"">
                                <p style=""font-size:50px; font-weight:bold;""
                                ></p>
                                <div style=""width:240px; margin: auto;"">
                                    <img src=""images/D22.png"" style= ""width:200px""alt=""img"">
                                </div>
                            </div>","200","","0","images/D22.png","","","","[""Stripey"",""Blobby""]"
"","","","","","html-button-response","82","274010","0.0-76.0","b6ypn0yjc1","3174","You have completed the first block of trials out of six. Please click 'Continue' when you are ready proceed.","0","","","","","","",""
"","","","","","html-button-response","83","276028","0.0-77.0","b6ypn0yjc1","2017","In the following trials, you will be asked to rate textures on the scale <b>Smooth</b> versus <b>Rough</b>. Please click 'Continue' when you are ready proceed.","0","","","","","","",""
"","","","","","html-slider-response","84","278158","0.0-78.0","b6ypn0yjc1","NaN","<div style=""width:500px;"">
                                <p style=""font-size:50px; font-weight:bold;""
                                ></p>
                                <div style=""width:240px; margin: auto;"">
                                    <img src=""images/D74.png"" style= ""width:200px""alt=""img"">
                                </div>
                            </div>","198","","0","images/D74.png","","","","[""Smooth"",""Rough""]"
"","","","","","html-slider-response","85","280775","0.0-79.0","b6ypn0yjc1","NaN","<div style=""width:500px;"">
                                <p style=""font-size:50px; font-weight:bold;""
                                ></p>
                                <div style=""width:240px; margin: auto;"">
                                    <img src=""images/D1.png"" style= ""width:200px""alt=""img"">
                                </div>
                            </div>","-17","","0","images/D1.png","","","","[""Smooth"",""Rough""]"
"","","","","","html-slider-response","86","283386","0.0-80.0","b6ypn0yjc1","NaN","<div style=""width:500px;"">
                                <p style=""font-size:50px; font-weight:bold;""
                                ></p>
                                <div style=""width:240px; margin: auto;"">
                                    <img src=""images/D37.png"" style= ""width:200px""alt=""img"">
                                </div>
                            </div>","-16","","0","images/D37.png","","","","[""Smooth"",""Rough""]"
"","","","","","html-slider-response","87","285491","0.0-81.0","b6ypn0yjc1","NaN","<div style=""width:500px;"">
                                <p style=""font-size:50px; font-weight:bold;""
                                ></p>
                                <div style=""width:240px; margin: auto;"">
                                    <img src=""images/D96.png"" style= ""width:200px""alt=""img"">
                                </div>
                            </div>","196","","0","images/D96.png","","","","[""Smooth"",""Rough""]"
"","","","","","html-slider-response","88","288260","0.0-82.0","b6ypn0yjc1","NaN","<div style=""width:500px;"">
                                <p style=""font-size:50px; font-weight:bold;""
                                ></p>
                                <div style=""width:240px; margin: auto;"">
                                    <img src=""images/D76.png"" style= ""width:200px""alt=""img"">
                                </div>
                            </div>","87","","0","images/D76.png","","","","[""Smooth"",""Rough""]"
"","","","","","html-slider-response","89","290142","0.0-83.0","b6ypn0yjc1","NaN","<div style=""width:500px;"">
                                <p style=""font-size:50px; font-weight:bold;""
                                ></p>
                                <div style=""width:240px; margin: auto;"">
                                    <img src=""images/D106.png"" style= ""width:200px""alt=""img"">
                                </div>
                            </div>","-198","","0","images/D106.png","","","","[""Smooth"",""Rough""]"
"","","","","","html-slider-response","90","292919","0.0-84.0","b6ypn0yjc1","NaN","<div style=""width:500px;"">
                                <p style=""font-size:50px; font-weight:bold;""
                                ></p>
                                <div style=""width:240px; margin: auto;"">
                                    <img src=""images/D52.png"" style= ""width:200px""alt=""img"">
                                </div>
                            </div>","198","","0","images/D52.png","","","","[""Smooth"",""Rough""]"
"","","","","","html-slider-response","91","296636","0.0-85.0","b6ypn0yjc1","NaN","<div style=""width:500px;"">
                                <p style=""font-size:50px; font-weight:bold;""
                                ></p>
                                <div style=""width:240px; margin: auto;"">
                                    <img src=""images/D11.png"" style= ""width:200px""alt=""img"">
                                </div>
                            </div>","122","","0","images/D11.png","","","","[""Smooth"",""Rough""]"
"","","","","","html-slider-response","92","299983","0.0-86.0","b6ypn0yjc1","NaN","<div style=""width:500px;"">
                                <p style=""font-size:50px; font-weight:bold;""
                                ></p>
                                <div style=""width:240px; margin: auto;"">
                                    <img src=""images/D56.png"" style= ""width:200px""alt=""img"">
                                </div>
                            </div>","4","","0","images/D56.png","","","","[""Smooth"",""Rough""]"
"","","","","","html-slider-response","93","302159","0.0-87.0","b6ypn0yjc1","NaN","<div style=""width:500px;"">
                                <p style=""font-size:50px; font-weight:bold;""
                                ></p>
                                <div style=""width:240px; margin: auto;"">
                                    <img src=""images/D64.png"" style= ""width:200px""alt=""img"">
                                </div>
                            </div>","-93","","0","images/D64.png","","","","[""Smooth"",""Rough""]"
"","","","","","html-slider-response","94","304310","0.0-88.0","b6ypn0yjc1","NaN","<div style=""width:500px;"">
                                <p style=""font-size:50px; font-weight:bold;""
                                ></p>
                                <div style=""width:240px; margin: auto;"">
                                    <img src=""images/D4.png"" style= ""width:200px""alt=""img"">
                                </div>
                            </div>","198","","0","images/D4.png","","","","[""Smooth"",""Rough""]"
"","","","","","html-slider-response","95","306580","0.0-89.0","b6ypn0yjc1","NaN","<div style=""width:500px;"">
                                <p style=""font-size:50px; font-weight:bold;""
                                ></p>
                                <div style=""width:240px; margin: auto;"">
                                    <img src=""images/D19.png"" style= ""width:200px""alt=""img"">
                                </div>
                            </div>","123","","0","images/D19.png","","","","[""Smooth"",""Rough""]"
"","","","","","html-slider-response","96","308162","0.0-90.0","b6ypn0yjc1","NaN","<div style=""width:500px;"">
                                <p style=""font-size:50px; font-weight:bold;""
                                ></p>
                                <div style=""width:240px; margin: auto;"">
                                    <img src=""images/D83.png"" style= ""width:200px""alt=""img"">
                                </div>
                            </div>","-119","","0","images/D83.png","","","","[""Smooth"",""Rough""]"
"","","","","","html-slider-response","97","310946","0.0-91.0","b6ypn0yjc1","NaN","<div style=""width:500px;"">
                                <p style=""font-size:50px; font-weight:bold;""
                                ></p>
                                <div style=""width:240px; margin: auto;"">
                                    <img src=""images/D68.png"" style= ""width:200px""alt=""img"">
                                </div>
                            </div>","-193","","0","images/D68.png","","","","[""Smooth"",""Rough""]"
"","","","","","html-slider-response","98","313391","0.0-92.0","b6ypn0yjc1","NaN","<div style=""width:500px;"">
                                <p style=""font-size:50px; font-weight:bold;""
                                ></p>
                                <div style=""width:240px; margin: auto;"">
                                    <img src=""images/D18.png"" style= ""width:200px""alt=""img"">
                                </div>
                            </div>","122","","0","images/D18.png","","","","[""Smooth"",""Rough""]"
"","","","","","html-slider-response","99","316349","0.0-93.0","b6ypn0yjc1","NaN","<div style=""width:500px;"">
                                <p style=""font-size:50px; font-weight:bold;""
                                ></p>
                                <div style=""width:240px; margin: auto;"">
                                    <img src=""images/D87.png"" style= ""width:200px""alt=""img"">
                                </div>
                            </div>","3","","0","images/D87.png","","","","[""Smooth"",""Rough""]"
"","","","","","html-slider-response","100","319269","0.0-94.0","b6ypn0yjc1","NaN","<div style=""width:500px;"">
                                <p style=""font-size:50px; font-weight:bold;""
                                ></p>
                                <div style=""width:240px; margin: auto;"">
                                    <img src=""images/D24.png"" style= ""width:200px""alt=""img"">
                                </div>
                            </div>","-137","","0","images/D24.png","","","","[""Smooth"",""Rough""]"
"","","","","","html-slider-response","101","321547","0.0-95.0","b6ypn0yjc1","NaN","<div style=""width:500px;"">
                                <p style=""font-size:50px; font-weight:bold;""
                                ></p>
                                <div style=""width:240px; margin: auto;"">
                                    <img src=""images/D6.png"" style= ""width:200px""alt=""img"">
                                </div>
                            </div>","-118","","0","images/D6.png","","","","[""Smooth"",""Rough""]"
"","","","","","html-slider-response","102","323921","0.0-96.0","b6ypn0yjc1","NaN","<div style=""width:500px;"">
                                <p style=""font-size:50px; font-weight:bold;""
                                ></p>
                                <div style=""width:240px; margin: auto;"">
                                    <img src=""images/D75.png"" style= ""width:200px""alt=""img"">
                                </div>
                            </div>","200","","0","images/D75.png","","","","[""Smooth"",""Rough""]"
"","","","","","html-slider-response","103","326167","0.0-97.0","b6ypn0yjc1","NaN","<div style=""width:500px;"">
                                <p style=""font-size:50px; font-weight:bold;""
                                ></p>
                                <div style=""width:240px; margin: auto;"">
                                    <img src=""images/D35.png"" style= ""width:200px""alt=""img"">
                                </div>
                            </div>","106","","0","images/D35.png","","","","[""Smooth"",""Rough""]"
"","","","","","html-slider-response","104","329458","0.0-98.0","b6ypn0yjc1","NaN","<div style=""width:500px;"">
                                <p style=""font-size:50px; font-weight:bold;""
                                ></p>
                                <div style=""width:240px; margin: auto;"">
                                    <img src=""images/D95.png"" style= ""width:200px""alt=""img"">
                                </div>
                            </div>","-2","","0","images/D95.png","","","","[""Smooth"",""Rough""]"
"","","","","","html-slider-response","105","331665","0.0-99.0","b6ypn0yjc1","NaN","<div style=""width:500px;"">
                                <p style=""font-size:50px; font-weight:bold;""
                                ></p>
                                <div style=""width:240px; margin: auto;"">
                                    <img src=""images/D105.png"" style= ""width:200px""alt=""img"">
                                </div>
                            </div>","-196","","0","images/D105.png","","","","[""Smooth"",""Rough""]"
"","","","","","html-slider-response","106","334940","0.0-100.0","b6ypn0yjc1","NaN","<div style=""width:500px;"">
                                <p style=""font-size:50px; font-weight:bold;""
                                ></p>
                                <div style=""width:240px; margin: auto;"">
                                    <img src=""images/D26.png"" style= ""width:200px""alt=""img"">
                                </div>
                            </div>","-196","","0","images/D26.png","","","","[""Smooth"",""Rough""]"
"","","","","","html-slider-response","107","338650","0.0-101.0","b6ypn0yjc1","NaN","<div style=""width:500px;"">
                                <p style=""font-size:50px; font-weight:bold;""
                                ></p>
                                <div style=""width:240px; margin: auto;"">
                                    <img src=""images/D25.png"" style= ""width:200px""alt=""img"">
                                </div>
                            </div>","-198","","0","images/D25.png","","","","[""Smooth"",""Rough""]"
"","","","","","html-slider-response","108","340707","0.0-102.0","b6ypn0yjc1","NaN","<div style=""width:500px;"">
                                <p style=""font-size:50px; font-weight:bold;""
                                ></p>
                                <div style=""width:240px; margin: auto;"">
                                    <img src=""images/D14.png"" style= ""width:200px""alt=""img"">
                                </div>
                            </div>","-90","","0","images/D14.png","","","","[""Smooth"",""Rough""]"
"","","","","","html-slider-response","109","343950","0.0-103.0","b6ypn0yjc1","NaN","<div style=""width:500px;"">
                                <p style=""font-size:50px; font-weight:bold;""
                                ></p>
                                <div style=""width:240px; margin: auto;"">
                                    <img src=""images/D47.png"" style= ""width:200px""alt=""img"">
                                </div>
                            </div>","-66","","0","images/D47.png","","","","[""Smooth"",""Rough""]"
"","","","","","html-slider-response","110","346481","0.0-104.0","b6ypn0yjc1","NaN","<div style=""width:500px;"">
                                <p style=""font-size:50px; font-weight:bold;""
                                ></p>
                                <div style=""width:240px; margin: auto;"">
                                    <img src=""images/D32.png"" style= ""width:200px""alt=""img"">
                                </div>
                            </div>","199","","0","images/D32.png","","","","[""Smooth"",""Rough""]"
"","","","","","html-slider-response","111","349258","0.0-105.0","b6ypn0yjc1","NaN","<div style=""width:500px;"">
                                <p style=""font-size:50px; font-weight:bold;""
                                ></p>
                                <div style=""width:240px; margin: auto;"">
                                    <img src=""images/D48.png"" style= ""width:200px""alt=""img"">
                                </div>
                            </div>","199","","0","images/D48.png","","","","[""Smooth"",""Rough""]"
"","","","","","html-slider-response","112","350849","0.0-106.0","b6ypn0yjc1","NaN","<div style=""width:500px;"">
                                <p style=""font-size:50px; font-weight:bold;""
                                ></p>
                                <div style=""width:240px; margin: auto;"">
                                    <img src=""images/D92.png"" style= ""width:200px""alt=""img"">
                                </div>
                            </div>","198","","0","images/D92.png","","","","[""Smooth"",""Rough""]"
"","","","","","html-slider-response","113","353175","0.0-107.0","b6ypn0yjc1","NaN","<div style=""width:500px;"">
                                <p style=""font-size:50px; font-weight:bold;""
                                ></p>
                                <div style=""width:240px; margin: auto;"">
                                    <img src=""images/D81.png"" style= ""width:200px""alt=""img"">
                                </div>
                            </div>","-195","","0","images/D81.png","","","","[""Smooth"",""Rough""]"
"","","","","","html-slider-response","114","355025","0.0-108.0","b6ypn0yjc1","NaN","<div style=""width:500px;"">
                                <p style=""font-size:50px; font-weight:bold;""
                                ></p>
                                <div style=""width:240px; margin: auto;"">
                                    <img src=""images/D103.png"" style= ""width:200px""alt=""img"">
                                </div>
                            </div>","-70","","0","images/D103.png","","","","[""Smooth"",""Rough""]"
"","","","","","html-slider-response","115","357011","0.0-109.0","b6ypn0yjc1","NaN","<div style=""width:500px;"">
                                <p style=""font-size:50px; font-weight:bold;""
                                ></p>
                                <div style=""width:240px; margin: auto;"">
                                    <img src=""images/D85.png"" style= ""width:200px""alt=""img"">
                                </div>
                            </div>","-183","","0","images/D85.png","","","","[""Smooth"",""Rough""]"
"","","","","","html-slider-response","116","360428","0.0-110.0","b6ypn0yjc1","NaN","<div style=""width:500px;"">
                                <p style=""font-size:50px; font-weight:bold;""
                                ></p>
                                <div style=""width:240px; margin: auto;"">
                                    <img src=""images/D104.png"" style= ""width:200px""alt=""img"">
                                </div>
                            </div>","-26","","0","images/D104.png","","","","[""Smooth"",""Rough""]"
"","","","","","html-slider-response","117","362429","0.0-111.0","b6ypn0yjc1","NaN","<div style=""width:500px;"">
                                <p style=""font-size:50px; font-weight:bold;""
                                ></p>
                                <div style=""width:240px; margin: auto;"">
                                    <img src=""images/D51.png"" style= ""width:200px""alt=""img"">
                                </div>
                            </div>","-195","","0","images/D51.png","","","","[""Smooth"",""Rough""]"
"","","","","","html-slider-response","118","365443","0.0-112.0","b6ypn0yjc1","NaN","<div style=""width:500px;"">
                                <p style=""font-size:50px; font-weight:bold;""
                                ></p>
                                <div style=""width:240px; margin: auto;"">
                                    <img src=""images/D65.png"" style= ""width:200px""alt=""img"">
                                </div>
                            </div>","33","","0","images/D65.png","","","","[""Smooth"",""Rough""]"
"","","","","","html-slider-response","119","368622","0.0-113.0","b6ypn0yjc1","NaN","<div style=""width:500px;"">
                                <p style=""font-size:50px; font-weight:bold;""
                                ></p>
                                <div style=""width:240px; margin: auto;"">
                                    <img src=""images/D77.png"" style= ""width:200px""alt=""img"">
                                </div>
                            </div>","-194","","0","images/D77.png","","","","[""Smooth"",""Rough""]"
"","","","","","html-slider-response","120","370869","0.0-114.0","b6ypn0yjc1","NaN","<div style=""width:500px;"">
                                <p style=""font-size:50px; font-weight:bold;""
                                ></p>
                                <div style=""width:240px; margin: auto;"">
                                    <img src=""images/D8.png"" style= ""width:200px""alt=""img"">
                                </div>
                            </div>","186","","0","images/D8.png","","","","[""Smooth"",""Rough""]"
"","","","","","html-slider-response","121","373116","0.0-115.0","b6ypn0yjc1","NaN","<div style=""width:500px;"">
                                <p style=""font-size:50px; font-weight:bold;""
                                ></p>
                                <div style=""width:240px; margin: auto;"">
                                    <img src=""images/D53.png"" style= ""width:200px""alt=""img"">
                                </div>
                            </div>","-140","","0","images/D53.png","","","","[""Smooth"",""Rough""]"
"","","","","","html-slider-response","122","376992","0.0-116.0","b6ypn0yjc1","NaN","<div style=""width:500px;"">
                                <p style=""font-size:50px; font-weight:bold;""
                                ></p>
                                <div style=""width:240px; margin: auto;"">
                                    <img src=""images/D82.png"" style= ""width:200px""alt=""img"">
                                </div>
                            </div>","-106","","0","images/D82.png","","","","[""Smooth"",""Rough""]"
"","","","","","html-slider-response","123","379279","0.0-117.0","b6ypn0yjc1","NaN","<div style=""width:500px;"">
                                <p style=""font-size:50px; font-weight:bold;""
                                ></p>
                                <div style=""width:240px; margin: auto;"">
                                    <img src=""images/D34.png"" style= ""width:200px""alt=""img"">
                                </div>
                            </div>","3","","0","images/D34.png","","","","[""Smooth"",""Rough""]"
"","","","","","html-slider-response","124","381248","0.0-118.0","b6ypn0yjc1","NaN","<div style=""width:500px;"">
                                <p style=""font-size:50px; font-weight:bold;""
                                ></p>
                                <div style=""width:240px; margin: auto;"">
                                    <img src=""images/D9.png"" style= ""width:200px""alt=""img"">
                                </div>
                            </div>","195","","0","images/D9.png","","","","[""Smooth"",""Rough""]"
"","","","","","html-slider-response","125","383147","0.0-119.0","b6ypn0yjc1","NaN","<div style=""width:500px;"">
                                <p style=""font-size:50px; font-weight:bold;""
                                ></p>
                                <div style=""width:240px; margin: auto;"">
                                    <img src=""images/D22.png"" style= ""width:200px""alt=""img"">
                                </div>
                            </div>","-101","","0","images/D22.png","","","","[""Smooth"",""Rough""]"
"","","","","","html-slider-response","126","385924","0.0-120.0","b6ypn0yjc1","NaN","<div style=""width:500px;"">
                                <p style=""font-size:50px; font-weight:bold;""
                                ></p>
                                <div style=""width:240px; margin: auto;"">
                                    <img src=""images/D20.png"" style= ""width:200px""alt=""img"">
                                </div>
                            </div>","199","","0","images/D20.png","","","","[""Smooth"",""Rough""]"
"","","","","","html-slider-response","127","388969","0.0-121.0","b6ypn0yjc1","NaN","<div style=""width:500px;"">
                                <p style=""font-size:50px; font-weight:bold;""
                                ></p>
                                <div style=""width:240px; margin: auto;"">
                                    <img src=""images/D46.png"" style= ""width:200px""alt=""img"">
                                </div>
                            </div>","106","","0","images/D46.png","","","","[""Smooth"",""Rough""]"
"","","","","","html-slider-response","128","391635","0.0-122.0","b6ypn0yjc1","NaN","<div style=""width:500px;"">
                                <p style=""font-size:50px; font-weight:bold;""
                                ></p>
                                <div style=""width:240px; margin: auto;"">
                                    <img src=""images/D16.png"" style= ""width:200px""alt=""img"">
                                </div>
                            </div>","-193","","0","images/D16.png","","","","[""Smooth"",""Rough""]"
"","","","","","html-slider-response","129","393921","0.0-123.0","b6ypn0yjc1","NaN","<div style=""width:500px;"">
                                <p style=""font-size:50px; font-weight:bold;""
                                ></p>
                                <div style=""width:240px; margin: auto;"">
                                    <img src=""images/D94.png"" style= ""width:200px""alt=""img"">
                                </div>
                            </div>","-101","","0","images/D94.png","","","","[""Smooth"",""Rough""]"
"","","","","","html-slider-response","130","396421","0.0-124.0","b6ypn0yjc1","NaN","<div style=""width:500px;"">
                                <p style=""font-size:50px; font-weight:bold;""
                                ></p>
                                <div style=""width:240px; margin: auto;"">
                                    <img src=""images/D29.png"" style= ""width:200px""alt=""img"">
                                </div>
                            </div>","52","","0","images/D29.png","","","","[""Smooth"",""Rough""]"
"","","","","","html-slider-response","131","399008","0.0-125.0","b6ypn0yjc1","NaN","<div style=""width:500px;"">
                                <p style=""font-size:50px; font-weight:bold;""
                                ></p>
                                <div style=""width:240px; margin: auto;"">
                                    <img src=""images/D3.png"" style= ""width:200px""alt=""img"">
                                </div>
                            </div>","126","","0","images/D3.png","","","","[""Smooth"",""Rough""]"
"","","","","","html-slider-response","132","401674","0.0-126.0","b6ypn0yjc1","NaN","<div style=""width:500px;"">
                                <p style=""font-size:50px; font-weight:bold;""
                                ></p>
                                <div style=""width:240px; margin: auto;"">
                                    <img src=""images/D55.png"" style= ""width:200px""alt=""img"">
                                </div>
                            </div>","-116","","0","images/D55.png","","","","[""Smooth"",""Rough""]"
"","","","","","html-slider-response","133","404830","0.0-127.0","b6ypn0yjc1","NaN","<div style=""width:500px;"">
                                <p style=""font-size:50px; font-weight:bold;""
                                ></p>
                                <div style=""width:240px; margin: auto;"">
                                    <img src=""images/D21.png"" style= ""width:200px""alt=""img"">
                                </div>
                            </div>","-197","","0","images/D21.png","","","","[""Smooth"",""Rough""]"
"","","","","","html-slider-response","134","407646","0.0-128.0","b6ypn0yjc1","NaN","<div style=""width:500px;"">
                                <p style=""font-size:50px; font-weight:bold;""
                                ></p>
                                <div style=""width:240px; margin: auto;"">
                                    <img src=""images/D111.png"" style= ""width:200px""alt=""img"">
                                </div>
                            </div>","194","","0","images/D111.png","","","","[""Smooth"",""Rough""]"
"","","","","","html-slider-response","135","409442","0.0-129.0","b6ypn0yjc1","NaN","<div style=""width:500px;"">
                                <p style=""font-size:50px; font-weight:bold;""
                                ></p>
                                <div style=""width:240px; margin: auto;"">
                                    <img src=""images/D84.png"" style= ""width:200px""alt=""img"">
                                </div>
                            </div>","193","","0","images/D84.png","","","","[""Smooth"",""Rough""]"
"","","","","","html-slider-response","136","411704","0.0-130.0","b6ypn0yjc1","NaN","<div style=""width:500px;"">
                                <p style=""font-size:50px; font-weight:bold;""
                                ></p>
                                <div style=""width:240px; margin: auto;"">
                                    <img src=""images/D78.png"" style= ""width:200px""alt=""img"">
                                </div>
                            </div>","-199","","0","images/D78.png","","","","[""Smooth"",""Rough""]"
"","","","","","html-slider-response","137","414630","0.0-131.0","b6ypn0yjc1","NaN","<div style=""width:500px;"">
                                <p style=""font-size:50px; font-weight:bold;""
                                ></p>
                                <div style=""width:240px; margin: auto;"">
                                    <img src=""images/D36.png"" style= ""width:200px""alt=""img"">
                                </div>
                            </div>","-2","","0","images/D36.png","","","","[""Smooth"",""Rough""]"
"","","","","","html-slider-response","138","416719","0.0-132.0","b6ypn0yjc1","NaN","<div style=""width:500px;"">
                                <p style=""font-size:50px; font-weight:bold;""
                                ></p>
                                <div style=""width:240px; margin: auto;"">
                                    <img src=""images/D49.png"" style= ""width:200px""alt=""img"">
                                </div>
                            </div>","-198","","0","images/D49.png","","","","[""Smooth"",""Rough""]"
"","","","","","html-slider-response","139","419550","0.0-133.0","b6ypn0yjc1","NaN","<div style=""width:500px;"">
                                <p style=""font-size:50px; font-weight:bold;""
                                ></p>
                                <div style=""width:240px; margin: auto;"">
                                    <img src=""images/D80.png"" style= ""width:200px""alt=""img"">
                                </div>
                            </div>","106","","0","images/D80.png","","","","[""Smooth"",""Rough""]"
"","","","","","html-slider-response","140","421947","0.0-134.0","b6ypn0yjc1","NaN","<div style=""width:500px;"">
                                <p style=""font-size:50px; font-weight:bold;""
                                ></p>
                                <div style=""width:240px; margin: auto;"">
                                    <img src=""images/D79.png"" style= ""width:200px""alt=""img"">
                                </div>
                            </div>","-195","","0","images/D79.png","","","","[""Smooth"",""Rough""]"
"","","","","","html-slider-response","141","424194","0.0-135.0","b6ypn0yjc1","NaN","<div style=""width:500px;"">
                                <p style=""font-size:50px; font-weight:bold;""
                                ></p>
                                <div style=""width:240px; margin: auto;"">
                                    <img src=""images/D17.png"" style= ""width:200px""alt=""img"">
                                </div>
                            </div>","-98","","0","images/D17.png","","","","[""Smooth"",""Rough""]"
"","","","","","html-slider-response","142","426258","0.0-136.0","b6ypn0yjc1","NaN","<div style=""width:500px;"">
                                <p style=""font-size:50px; font-weight:bold;""
                                ></p>
                                <div style=""width:240px; margin: auto;"">
                                    <img src=""images/D57.png"" style= ""width:200px""alt=""img"">
                                </div>
                            </div>","50","","0","images/D57.png","","","","[""Smooth"",""Rough""]"
"","","","","","html-slider-response","143","428291","0.0-137.0","b6ypn0yjc1","NaN","<div style=""width:500px;"">
                                <p style=""font-size:50px; font-weight:bold;""
                                ></p>
                                <div style=""width:240px; margin: auto;"">
                                    <img src=""images/D66.png"" style= ""width:200px""alt=""img"">
                                </div>
                            </div>","190","","0","images/D66.png","","","","[""Smooth"",""Rough""]"
"","","","","","html-slider-response","144","431258","0.0-138.0","b6ypn0yjc1","NaN","<div style=""width:500px;"">
                                <p style=""font-size:50px; font-weight:bold;""
                                ></p>
                                <div style=""width:240px; margin: auto;"">
                                    <img src=""images/D102.png"" style= ""width:200px""alt=""img"">
                                </div>
                            </div>","2","","0","images/D102.png","","","","[""Smooth"",""Rough""]"
"","","","","","html-slider-response","145","433457","0.0-139.0","b6ypn0yjc1","NaN","<div style=""width:500px;"">
                                <p style=""font-size:50px; font-weight:bold;""
                                ></p>
                                <div style=""width:240px; margin: auto;"">
                                    <img src=""images/D101.png"" style= ""width:200px""alt=""img"">
                                </div>
                            </div>","-96","","0","images/D101.png","","","","[""Smooth"",""Rough""]"
"","","","","","html-button-response","146","436350","0.0-140.0","b6ypn0yjc1","2392","You have completed the second block of trials out of six. Please click 'Continue' when you are ready proceed.","0","","","","","","",""
"","","","","","html-button-response","147","439550","0.0-141.0","b6ypn0yjc1","3200","In the following trials, you will be asked to rate textures on the scale <b>Soft</b> versus <b>Hard</b>. Please click 'Continue' when you are ready proceed.","0","","","","","","",""
"","","","","","html-slider-response","148","442345","0.0-142.0","b6ypn0yjc1","NaN","<div style=""width:500px;"">
                                <p style=""font-size:50px; font-weight:bold;""
                                ></p>
                                <div style=""width:240px; margin: auto;"">
                                    <img src=""images/D74.png"" style= ""width:200px""alt=""img"">
                                </div>
                            </div>","198","","0","images/D74.png","","","","[""Hard"",""Soft""]"
"","","","","","html-slider-response","149","453064","0.0-143.0","b6ypn0yjc1","NaN","<div style=""width:500px;"">
                                <p style=""font-size:50px; font-weight:bold;""
                                ></p>
                                <div style=""width:240px; margin: auto;"">
                                    <img src=""images/D1.png"" style= ""width:200px""alt=""img"">
                                </div>
                            </div>","-134","","0","images/D1.png","","","","[""Hard"",""Soft""]"
"","","","","","html-slider-response","150","455738","0.0-144.0","b6ypn0yjc1","NaN","<div style=""width:500px;"">
                                <p style=""font-size:50px; font-weight:bold;""
                                ></p>
                                <div style=""width:240px; margin: auto;"">
                                    <img src=""images/D37.png"" style= ""width:200px""alt=""img"">
                                </div>
                            </div>","200","","0","images/D37.png","","","","[""Hard"",""Soft""]"
"","","","","","html-slider-response","151","457700","0.0-145.0","b6ypn0yjc1","NaN","<div style=""width:500px;"">
                                <p style=""font-size:50px; font-weight:bold;""
                                ></p>
                                <div style=""width:240px; margin: auto;"">
                                    <img src=""images/D96.png"" style= ""width:200px""alt=""img"">
                                </div>
                            </div>","-84","","0","images/D96.png","","","","[""Hard"",""Soft""]"
"","","","","","html-slider-response","152","460191","0.0-146.0","b6ypn0yjc1","NaN","<div style=""width:500px;"">
                                <p style=""font-size:50px; font-weight:bold;""
                                ></p>
                                <div style=""width:240px; margin: auto;"">
                                    <img src=""images/D76.png"" style= ""width:200px""alt=""img"">
                                </div>
                            </div>","-192","","0","images/D76.png","","","","[""Hard"",""Soft""]"
"","","","","","html-slider-response","153","464613","0.0-147.0","b6ypn0yjc1","NaN","<div style=""width:500px;"">
                                <p style=""font-size:50px; font-weight:bold;""
                                ></p>
                                <div style=""width:240px; margin: auto;"">
                                    <img src=""images/D106.png"" style= ""width:200px""alt=""img"">
                                </div>
                            </div>","135","","0","images/D106.png","","","","[""Hard"",""Soft""]"
"","","","","","html-slider-response","154","467350","0.0-148.0","b6ypn0yjc1","NaN","<div style=""width:500px;"">
                                <p style=""font-size:50px; font-weight:bold;""
                                ></p>
                                <div style=""width:240px; margin: auto;"">
                                    <img src=""images/D52.png"" style= ""width:200px""alt=""img"">
                                </div>
                            </div>","94","","0","images/D52.png","","","","[""Hard"",""Soft""]"
"","","","","","html-slider-response","155","469890","0.0-149.0","b6ypn0yjc1","NaN","<div style=""width:500px;"">
                                <p style=""font-size:50px; font-weight:bold;""
                                ></p>
                                <div style=""width:240px; margin: auto;"">
                                    <img src=""images/D11.png"" style= ""width:200px""alt=""img"">
                                </div>
                            </div>","-74","","0","images/D11.png","","","","[""Hard"",""Soft""]"
"","","","","","html-slider-response","156","472801","0.0-150.0","b6ypn0yjc1","NaN","<div style=""width:500px;"">
                                <p style=""font-size:50px; font-weight:bold;""
                                ></p>
                                <div style=""width:240px; margin: auto;"">
                                    <img src=""images/D56.png"" style= ""width:200px""alt=""img"">
                                </div>
                            </div>","-196","","0","images/D56.png","","","","[""Hard"",""Soft""]"
"","","","","","html-slider-response","157","474272","0.0-151.0","b6ypn0yjc1","NaN","<div style=""width:500px;"">
                                <p style=""font-size:50px; font-weight:bold;""
                                ></p>
                                <div style=""width:240px; margin: auto;"">
                                    <img src=""images/D64.png"" style= ""width:200px""alt=""img"">
                                </div>
                            </div>","-198","","0","images/D64.png","","","","[""Hard"",""Soft""]"
"","","","","","html-slider-response","158","480704","0.0-152.0","b6ypn0yjc1","NaN","<div style=""width:500px;"">
                                <p style=""font-size:50px; font-weight:bold;""
                                ></p>
                                <div style=""width:240px; margin: auto;"">
                                    <img src=""images/D4.png"" style= ""width:200px""alt=""img"">
                                </div>
                            </div>","105","","0","images/D4.png","","","","[""Hard"",""Soft""]"
"","","","","","html-slider-response","159","483386","0.0-153.0","b6ypn0yjc1","NaN","<div style=""width:500px;"">
                                <p style=""font-size:50px; font-weight:bold;""
                                ></p>
                                <div style=""width:240px; margin: auto;"">
                                    <img src=""images/D19.png"" style= ""width:200px""alt=""img"">
                                </div>
                            </div>","-200","","0","images/D19.png","","","","[""Hard"",""Soft""]"
"","","","","","html-slider-response","160","486748","0.0-154.0","b6ypn0yjc1","NaN","<div style=""width:500px;"">
                                <p style=""font-size:50px; font-weight:bold;""
                                ></p>
                                <div style=""width:240px; margin: auto;"">
                                    <img src=""images/D83.png"" style= ""width:200px""alt=""img"">
                                </div>
                            </div>","-84","","0","images/D83.png","","","","[""Hard"",""Soft""]"
"","","","","","html-slider-response","161","489154","0.0-155.0","b6ypn0yjc1","NaN","<div style=""width:500px;"">
                                <p style=""font-size:50px; font-weight:bold;""
                                ></p>
                                <div style=""width:240px; margin: auto;"">
                                    <img src=""images/D68.png"" style= ""width:200px""alt=""img"">
                                </div>
                            </div>","95","","0","images/D68.png","","","","[""Hard"",""Soft""]"
"","","","","","html-slider-response","162","491115","0.0-156.0","b6ypn0yjc1","NaN","<div style=""width:500px;"">
                                <p style=""font-size:50px; font-weight:bold;""
                                ></p>
                                <div style=""width:240px; margin: auto;"">
                                    <img src=""images/D18.png"" style= ""width:200px""alt=""img"">
                                </div>
                            </div>","-193","","0","images/D18.png","","","","[""Hard"",""Soft""]"
"","","","","","html-slider-response","163","493299","0.0-157.0","b6ypn0yjc1","NaN","<div style=""width:500px;"">
                                <p style=""font-size:50px; font-weight:bold;""
                                ></p>
                                <div style=""width:240px; margin: auto;"">
                                    <img src=""images/D87.png"" style= ""width:200px""alt=""img"">
                                </div>
                            </div>","-49","","0","images/D87.png","","","","[""Hard"",""Soft""]"
"","","","","","html-slider-response","164","495886","0.0-158.0","b6ypn0yjc1","NaN","<div style=""width:500px;"">
                                <p style=""font-size:50px; font-weight:bold;""
                                ></p>
                                <div style=""width:240px; margin: auto;"">
                                    <img src=""images/D24.png"" style= ""width:200px""alt=""img"">
                                </div>
                            </div>","2","","0","images/D24.png","","","","[""Hard"",""Soft""]"
"","","","","","html-slider-response","165","499161","0.0-159.0","b6ypn0yjc1","NaN","<div style=""width:500px;"">
                                <p style=""font-size:50px; font-weight:bold;""
                                ></p>
                                <div style=""width:240px; margin: auto;"">
                                    <img src=""images/D6.png"" style= ""width:200px""alt=""img"">
                                </div>
                            </div>","197","","0","images/D6.png","","","","[""Hard"",""Soft""]"
"","","","","","html-slider-response","166","505972","0.0-160.0","b6ypn0yjc1","NaN","<div style=""width:500px;"">
                                <p style=""font-size:50px; font-weight:bold;""
                                ></p>
                                <div style=""width:240px; margin: auto;"">
                                    <img src=""images/D75.png"" style= ""width:200px""alt=""img"">
                                </div>
                            </div>","-199","","0","images/D75.png","","","","[""Hard"",""Soft""]"
"","","","","","html-slider-response","167","509975","0.0-161.0","b6ypn0yjc1","NaN","<div style=""width:500px;"">
                                <p style=""font-size:50px; font-weight:bold;""
                                ></p>
                                <div style=""width:240px; margin: auto;"">
                                    <img src=""images/D35.png"" style= ""width:200px""alt=""img"">
                                </div>
                            </div>","-137","","0","images/D35.png","","","","[""Hard"",""Soft""]"
"","","","","","html-slider-response","168","512119","0.0-162.0","b6ypn0yjc1","NaN","<div style=""width:500px;"">
                                <p style=""font-size:50px; font-weight:bold;""
                                ></p>
                                <div style=""width:240px; margin: auto;"">
                                    <img src=""images/D95.png"" style= ""width:200px""alt=""img"">
                                </div>
                            </div>","-194","","0","images/D95.png","","","","[""Hard"",""Soft""]"
"","","","","","html-slider-response","169","514903","0.0-163.0","b6ypn0yjc1","NaN","<div style=""width:500px;"">
                                <p style=""font-size:50px; font-weight:bold;""
                                ></p>
                                <div style=""width:240px; margin: auto;"">
                                    <img src=""images/D105.png"" style= ""width:200px""alt=""img"">
                                </div>
                            </div>","-14","","0","images/D105.png","","","","[""Hard"",""Soft""]"
"","","","","","html-slider-response","170","518867","0.0-164.0","b6ypn0yjc1","NaN","<div style=""width:500px;"">
                                <p style=""font-size:50px; font-weight:bold;""
                                ></p>
                                <div style=""width:240px; margin: auto;"">
                                    <img src=""images/D26.png"" style= ""width:200px""alt=""img"">
                                </div>
                            </div>","-66","","0","images/D26.png","","","","[""Hard"",""Soft""]"
"","","","","","html-slider-response","171","522149","0.0-165.0","b6ypn0yjc1","NaN","<div style=""width:500px;"">
                                <p style=""font-size:50px; font-weight:bold;""
                                ></p>
                                <div style=""width:240px; margin: auto;"">
                                    <img src=""images/D25.png"" style= ""width:200px""alt=""img"">
                                </div>
                            </div>","107","","0","images/D25.png","","","","[""Hard"",""Soft""]"
"","","","","","html-slider-response","172","524324","0.0-166.0","b6ypn0yjc1","NaN","<div style=""width:500px;"">
                                <p style=""font-size:50px; font-weight:bold;""
                                ></p>
                                <div style=""width:240px; margin: auto;"">
                                    <img src=""images/D14.png"" style= ""width:200px""alt=""img"">
                                </div>
                            </div>","194","","0","images/D14.png","","","","[""Hard"",""Soft""]"
"","","","","","html-slider-response","173","527599","0.0-167.0","b6ypn0yjc1","NaN","<div style=""width:500px;"">
                                <p style=""font-size:50px; font-weight:bold;""
                                ></p>
                                <div style=""width:240px; margin: auto;"">
                                    <img src=""images/D47.png"" style= ""width:200px""alt=""img"">
                                </div>
                            </div>","-195","","0","images/D47.png","","","","[""Hard"",""Soft""]"
"","","","","","html-slider-response","174","530162","0.0-168.0","b6ypn0yjc1","NaN","<div style=""width:500px;"">
                                <p style=""font-size:50px; font-weight:bold;""
                                ></p>
                                <div style=""width:240px; margin: auto;"">
                                    <img src=""images/D32.png"" style= ""width:200px""alt=""img"">
                                </div>
                            </div>","117","","0","images/D32.png","","","","[""Hard"",""Soft""]"
"","","","","","html-slider-response","175","532282","0.0-169.0","b6ypn0yjc1","NaN","<div style=""width:500px;"">
                                <p style=""font-size:50px; font-weight:bold;""
                                ></p>
                                <div style=""width:240px; margin: auto;"">
                                    <img src=""images/D48.png"" style= ""width:200px""alt=""img"">
                                </div>
                            </div>","-196","","0","images/D48.png","","","","[""Hard"",""Soft""]"
"","","","","","html-slider-response","176","535525","0.0-170.0","b6ypn0yjc1","NaN","<div style=""width:500px;"">
                                <p style=""font-size:50px; font-weight:bold;""
                                ></p>
                                <div style=""width:240px; margin: auto;"">
                                    <img src=""images/D92.png"" style= ""width:200px""alt=""img"">
                                </div>
                            </div>","-80","","0","images/D92.png","","","","[""Hard"",""Soft""]"
"","","","","","html-slider-response","177","537661","0.0-171.0","b6ypn0yjc1","NaN","<div style=""width:500px;"">
                                <p style=""font-size:50px; font-weight:bold;""
                                ></p>
                                <div style=""width:240px; margin: auto;"">
                                    <img src=""images/D81.png"" style= ""width:200px""alt=""img"">
                                </div>
                            </div>","-143","","0","images/D81.png","","","","[""Hard"",""Soft""]"
"","","","","","html-slider-response","178","539489","0.0-172.0","b6ypn0yjc1","NaN","<div style=""width:500px;"">
                                <p style=""font-size:50px; font-weight:bold;""
                                ></p>
                                <div style=""width:240px; margin: auto;"">
                                    <img src=""images/D103.png"" style= ""width:200px""alt=""img"">
                                </div>
                            </div>","155","","0","images/D103.png","","","","[""Hard"",""Soft""]"
"","","","","","html-slider-response","179","541965","0.0-173.0","b6ypn0yjc1","NaN","<div style=""width:500px;"">
                                <p style=""font-size:50px; font-weight:bold;""
                                ></p>
                                <div style=""width:240px; margin: auto;"">
                                    <img src=""images/D85.png"" style= ""width:200px""alt=""img"">
                                </div>
                            </div>","-117","","0","images/D85.png","","","","[""Hard"",""Soft""]"
"","","","","","html-slider-response","180","543895","0.0-174.0","b6ypn0yjc1","NaN","<div style=""width:500px;"">
                                <p style=""font-size:50px; font-weight:bold;""
                                ></p>
                                <div style=""width:240px; margin: auto;"">
                                    <img src=""images/D104.png"" style= ""width:200px""alt=""img"">
                                </div>
                            </div>","193","","0","images/D104.png","","","","[""Hard"",""Soft""]"
"","","","","","html-slider-response","181","546291","0.0-175.0","b6ypn0yjc1","NaN","<div style=""width:500px;"">
                                <p style=""font-size:50px; font-weight:bold;""
                                ></p>
                                <div style=""width:240px; margin: auto;"">
                                    <img src=""images/D51.png"" style= ""width:200px""alt=""img"">
                                </div>
                            </div>","-196","","0","images/D51.png","","","","[""Hard"",""Soft""]"
"","","","","","html-slider-response","182","548205","0.0-176.0","b6ypn0yjc1","NaN","<div style=""width:500px;"">
                                <p style=""font-size:50px; font-weight:bold;""
                                ></p>
                                <div style=""width:240px; margin: auto;"">
                                    <img src=""images/D65.png"" style= ""width:200px""alt=""img"">
                                </div>
                            </div>","-126","","0","images/D65.png","","","","[""Hard"",""Soft""]"
"","","","","","html-slider-response","183","550151","0.0-177.0","b6ypn0yjc1","NaN","<div style=""width:500px;"">
                                <p style=""font-size:50px; font-weight:bold;""
                                ></p>
                                <div style=""width:240px; margin: auto;"">
                                    <img src=""images/D77.png"" style= ""width:200px""alt=""img"">
                                </div>
                            </div>","198","","0","images/D77.png","","","","[""Hard"",""Soft""]"
"","","","","","html-slider-response","184","552066","0.0-178.0","b6ypn0yjc1","NaN","<div style=""width:500px;"">
                                <p style=""font-size:50px; font-weight:bold;""
                                ></p>
                                <div style=""width:240px; margin: auto;"">
                                    <img src=""images/D8.png"" style= ""width:200px""alt=""img"">
                                </div>
                            </div>","-197","","0","images/D8.png","","","","[""Hard"",""Soft""]"
"","","","","","html-slider-response","185","554067","0.0-179.0","b6ypn0yjc1","NaN","<div style=""width:500px;"">
                                <p style=""font-size:50px; font-weight:bold;""
                                ></p>
                                <div style=""width:240px; margin: auto;"">
                                    <img src=""images/D53.png"" style= ""width:200px""alt=""img"">
                                </div>
                            </div>","197","","0","images/D53.png","","","","[""Hard"",""Soft""]"
"","","","","","html-slider-response","186","556068","0.0-180.0","b6ypn0yjc1","NaN","<div style=""width:500px;"">
                                <p style=""font-size:50px; font-weight:bold;""
                                ></p>
                                <div style=""width:240px; margin: auto;"">
                                    <img src=""images/D82.png"" style= ""width:200px""alt=""img"">
                                </div>
                            </div>","105","","0","images/D82.png","","","","[""Hard"",""Soft""]"
"","","","","","html-slider-response","187","558117","0.0-181.0","b6ypn0yjc1","NaN","<div style=""width:500px;"">
                                <p style=""font-size:50px; font-weight:bold;""
                                ></p>
                                <div style=""width:240px; margin: auto;"">
                                    <img src=""images/D34.png"" style= ""width:200px""alt=""img"">
                                </div>
                            </div>","32","","0","images/D34.png","","","","[""Hard"",""Soft""]"
"","","","","","html-slider-response","188","560348","0.0-182.0","b6ypn0yjc1","NaN","<div style=""width:500px;"">
                                <p style=""font-size:50px; font-weight:bold;""
