"success","timeout","failed_images","failed_audio","failed_video","trial_type","trial_index","time_elapsed","internal_node_id","subject_id","rt","stimulus","response","question_order","slider_start","image_path","practiceTrial","practiceTrialNum","correct","slider_labels"
"true","false","[]","[]","[]","preload","0","212","0.0-0.0","c8ak4w16uu","","","","","","","","","",""
"","","","","","html-button-response","1","1278","0.0-1.0","c8ak4w16uu","1064","<div style='text-align:center; font-size:20px; line-height:25px; width: 1200px;'>
                Welcome to our experiment! <br>
                <br>At the bottom of this screen, you will see a button that says 'Begin Experiment.
                <br>Please only click that button when you are ready to complete the 25 minute experiment in one sitting. <br>
                <br> Once you click that button, it will not be possible to restart the experiment. <br><br>","0","","","","","","",""
"true","","","","","fullscreen","2","5279","0.0-2.0","c8ak4w16uu","2997","","","","","","","","",""
"","","","","","survey-multi-select","3","16981","0.0-3.0","c8ak4w16uu","11696","","{""Consent"":[""<strong>I consent</strong>""]}","[0]","","","","","",""
"","","","","","html-button-response","4","22263","0.0-4.0","c8ak4w16uu","5276","Welcome! <p> This experiment involves two parts: demographic information, followed by the experimental task.<p> It will take about 25 minutes to complete both parts.","0","","","","","","",""
"","","","","","survey-text","5","41971","0.0-5.0","c8ak4w16uu","19703","","{""Age"":""19"",""Gender"":""Female"",""Race/ethnicity"":""Middle Eastern/Persian""}","","","","","","",""
"","","","","","html-slider-response","6","73292","0.0-6.0","c8ak4w16uu","31318","
                <div style='text-align:center; height: auto; margin-left=-100px; margin-bottom: -20px; font-size:20px; line-height:5px; width: 1200px;'>
                    <br>During this experiment, you will see a series of textures, one at a time, like the ones below: 
                </div>
                    <br>
                    <br>
                    <img src=""anchoring_visual_textures.png"" alt=""img"" style=""max-width:1200px; margin-left: -10px;"">
                </div>
                <div style=""clear: both;""></div>
                </div>
                    <div style='text-align:center; margin-left=-100px; font-size:20px; line-height:20px; width: 1200px; margin-top: -50px;'>
                    
                    <br> For each texture, you will be asked to rate where you think it falls on each of the response scales with the following endpoints:
                    </div>
                            <div style=""text-align: center; width: 1400px; "">
                                <p style=""font-size:20px; line-height:5px; ""><b>Blobby</b> versus <b>Stripey</b></p>
                                <p style=""font-size:20px; line-height:5px; ""><b>Rounded</b> versus <b>Rectangular</b></p>
                                <p style=""font-size:20px;line-height:5px;""><b>Coarse</b> versus <b>Fine</b></p>
                                <p style=""font-size:20px;line-height:5px; ""><b>Rough</b> versus <b>Smooth</b></p>
                                <p style=""font-size:20px;line-height:5px; ""><b>Random</b> versus <b>Non-Random</b></p>
                                <p style=""font-size:20px;line-height:5px;""><b>Hard</b> versus <b>Soft</b></p>
                            </div>
                            <div style='text-align:center; font-size:20px; line-height:20px; width: 1400px;'>
                    
                    Each trial will include one texture and one response scale. You will be asked to make your rating by sliding the cursor along a slider response scale like the one below.
                    <br><br> Before beginning, please look at the textures and scales. For each scale, think about the texture you associate most with the left endpoint. When you see that texture for that response scale, please click near the left of the scale.
                    <br><br> Now, please think about the texture you associate most with the right endpoint of each scale. When you see that texture for that response scale, please click near the right of the scale. 
                    <br><br> If you think a texture is not strongly associated with either endpoint of the scale, please click near the midpoint of the scale. Please use the full range of the scale. 
                    <br><br> You will be asked to rate each texture for a given scale before moving on to the next scale.
                    <br><br> Please press the 'Continue' button for instructions on how to use the slider.                     <br><br>
                ","null","","0","visual_textures_anchoring.png","true","","",""
"","","","","","html-button-response","7","75454","0.0-7.0","c8ak4w16uu","2161","<div style=""width:1200px; margin-top:-150px;""><p style=""text-align:center; font-size:24px;"">To move the slider, click and drag your cursor to the location of the scale where you would like to make your rating and then let go. <br><br> When you let go of the slider, your response will be recorded and the next trial will begin. <br><br><br>
                We are interested in your initial impressions of each texture and scale, so please go with your first intuition. <br><br>
                Before you begin the experiment, there will be four training trials for you to practice using the scale. <br><br><br><br></div>
                <div style=""width:1200px;""><p style=""text-align:center; font-size:20px;"">When you are ready to start the training trials, please click ""Continue"".</p></div>","0","","","","","","",""
"","","","","","html-slider-response","8","77987","0.0-8.0-0.0","c8ak4w16uu","NaN","<div style=""width:500px;"">
                                <p style=""font-size:25px;"">Please move the slider all the way to the <br> right endpoint of the scale</p>

                                </div>
                            </div>","200","","0","","true","0","true",""
"","","","","","html-button-response","9","79513","0.0-8.0-1.0","c8ak4w16uu","1021","<p align='center'><b>Good job!</b> Click on 'Continue' to proceed.</p>","0","","","","","","",""
"","","","","","html-slider-response","10","80495","0.0-9.0-0.0","c8ak4w16uu","NaN","<div style=""width:500px;"">
                                <p style=""font-size:25px;"">Please move the slider all the way to the <br> left endpoint of the scale</p>

                                </div>
                            </div>","-200","","0","","true","1","true",""
"","","","","","html-button-response","11","81938","0.0-9.0-1.0","c8ak4w16uu","941","<p align='center'><b>Good job!</b> Click on 'Continue' to proceed.</p>","0","","","","","","",""
"","","","","","html-slider-response","12","84736","0.0-10.0-0.0","c8ak4w16uu","NaN","<div style=""width:500px;"">
                                <p style=""font-size:25px;"">Please move the slider halfway between the center and right endpoint of the scale</p>

                                </div>
                            </div>","112","","0","","true","2","false",""
"","","","","","html-button-response","13","87080","0.0-10.0-1.0","c8ak4w16uu","1840","<p align='center'><b>Not quite!</b> The slider was not placed near the instructed locattion. Click on 'Continue' to try again. </p>","0","","","","","","",""
"","","","","","html-slider-response","14","89495","0.0-10.1-0.1","c8ak4w16uu","NaN","<div style=""width:500px;"">
                                <p style=""font-size:25px;"">Please move the slider halfway between the center and right endpoint of the scale</p>

                                </div>
                            </div>","101","","0","","true","2","true",""
"","","","","","html-button-response","15","92094","0.0-10.1-1.1","c8ak4w16uu","2095","<p align='center'><b>Good job!</b> Click on 'Continue' to proceed.</p>","0","","","","","","",""
"","","","","","html-slider-response","16","93620","0.0-11.0-0.0","c8ak4w16uu","NaN","<div style=""width:500px;"">
                                <p style=""font-size:25px;"">Please move the slider halfway between the center and left endpoint of the scale</p>

                                </div>
                            </div>","-105","","0","","true","3","true",""
"","","","","","html-button-response","17","94876","0.0-11.0-1.0","c8ak4w16uu","754","<p align='center'><b>Good job!</b> Click on 'Continue' to proceed.</p>","0","","","","","","",""
"","","","","","html-button-response","18","95935","0.0-12.0","c8ak4w16uu","1058","<div style=""width:800px; margin-top:-300px;""><p style=""text-align:center; font-size:22px; line-height:25px;""""> Great job! You've completed the practice trials.</div>
                     <div style=""width:800px; margin-top:-20px;""><p style=""text-align:center""><br><br> In the following trials, you will be asked to rate textures on each scale one-by-one. <br> You will be given opportunities to take breaks when you have completed each block of trials. There are six total blocks of trials. <br><br> Please click continue to begin the main task.<br><br><br> </div>","0","","","","","","",""
"","","","","","html-button-response","19","98163","0.0-13.0","c8ak4w16uu","2227","In the following trials, you will be asked to rate textures on the scale <b>Coarse</b> versus <b>Fine</b>. Please click 'Continue' when you are ready proceed.","0","","","","","","",""
"","","","","","html-slider-response","20","101776","0.0-14.0","c8ak4w16uu","NaN","<div style=""width:500px;"">
                                <p style=""font-size:50px; font-weight:bold;""
                                ></p>
                                <div style=""width:240px; margin: auto;"">
                                    <img src=""images/D77.png"" style= ""width:200px""alt=""img"">
                                </div>
                            </div>","38","","0","images/D77.png","","","","[""Coarse"",""Fine""]"
"","","","","","html-slider-response","21","104766","0.0-15.0","c8ak4w16uu","NaN","<div style=""width:500px;"">
                                <p style=""font-size:50px; font-weight:bold;""
                                ></p>
                                <div style=""width:240px; margin: auto;"">
                                    <img src=""images/D8.png"" style= ""width:200px""alt=""img"">
                                </div>
                            </div>","-102","","0","images/D8.png","","","","[""Coarse"",""Fine""]"
"","","","","","html-slider-response","22","107490","0.0-16.0","c8ak4w16uu","NaN","<div style=""width:500px;"">
                                <p style=""font-size:50px; font-weight:bold;""
                                ></p>
                                <div style=""width:240px; margin: auto;"">
                                    <img src=""images/D87.png"" style= ""width:200px""alt=""img"">
                                </div>
                            </div>","-160","","0","images/D87.png","","","","[""Coarse"",""Fine""]"
"","","","","","html-slider-response","23","110401","0.0-17.0","c8ak4w16uu","NaN","<div style=""width:500px;"">
                                <p style=""font-size:50px; font-weight:bold;""
                                ></p>
                                <div style=""width:240px; margin: auto;"">
                                    <img src=""images/D103.png"" style= ""width:200px""alt=""img"">
                                </div>
                            </div>","34","","0","images/D103.png","","","","[""Coarse"",""Fine""]"
"","","","","","html-slider-response","24","113107","0.0-18.0","c8ak4w16uu","NaN","<div style=""width:500px;"">
                                <p style=""font-size:50px; font-weight:bold;""
                                ></p>
                                <div style=""width:240px; margin: auto;"">
                                    <img src=""images/D64.png"" style= ""width:200px""alt=""img"">
                                </div>
                            </div>","-170","","0","images/D64.png","","","","[""Coarse"",""Fine""]"
"","","","","","html-slider-response","25","115994","0.0-19.0","c8ak4w16uu","NaN","<div style=""width:500px;"">
                                <p style=""font-size:50px; font-weight:bold;""
                                ></p>
                                <div style=""width:240px; margin: auto;"">
                                    <img src=""images/D46.png"" style= ""width:200px""alt=""img"">
                                </div>
                            </div>","23","","0","images/D46.png","","","","[""Coarse"",""Fine""]"
"","","","","","html-slider-response","26","118371","0.0-20.0","c8ak4w16uu","NaN","<div style=""width:500px;"">
                                <p style=""font-size:50px; font-weight:bold;""
                                ></p>
                                <div style=""width:240px; margin: auto;"">
                                    <img src=""images/D16.png"" style= ""width:200px""alt=""img"">
                                </div>
                            </div>","175","","0","images/D16.png","","","","[""Coarse"",""Fine""]"
"","","","","","html-slider-response","27","121214","0.0-21.0","c8ak4w16uu","NaN","<div style=""width:500px;"">
                                <p style=""font-size:50px; font-weight:bold;""
                                ></p>
                                <div style=""width:240px; margin: auto;"">
                                    <img src=""images/D49.png"" style= ""width:200px""alt=""img"">
                                </div>
                            </div>","136","","0","images/D49.png","","","","[""Coarse"",""Fine""]"
"","","","","","html-slider-response","28","123297","0.0-22.0","c8ak4w16uu","NaN","<div style=""width:500px;"">
                                <p style=""font-size:50px; font-weight:bold;""
                                ></p>
                                <div style=""width:240px; margin: auto;"">
                                    <img src=""images/D20.png"" style= ""width:200px""alt=""img"">
                                </div>
                            </div>","-73","","0","images/D20.png","","","","[""Coarse"",""Fine""]"
"","","","","","html-slider-response","29","126335","0.0-23.0","c8ak4w16uu","NaN","<div style=""width:500px;"">
                                <p style=""font-size:50px; font-weight:bold;""
                                ></p>
                                <div style=""width:240px; margin: auto;"">
                                    <img src=""images/D37.png"" style= ""width:200px""alt=""img"">
                                </div>
                            </div>","19","","0","images/D37.png","","","","[""Coarse"",""Fine""]"
"","","","","","html-slider-response","30","128383","0.0-24.0","c8ak4w16uu","NaN","<div style=""width:500px;"">
                                <p style=""font-size:50px; font-weight:bold;""
                                ></p>
                                <div style=""width:240px; margin: auto;"">
                                    <img src=""images/D85.png"" style= ""width:200px""alt=""img"">
                                </div>
                            </div>","175","","0","images/D85.png","","","","[""Coarse"",""Fine""]"
"","","","","","html-slider-response","31","130274","0.0-25.0","c8ak4w16uu","NaN","<div style=""width:500px;"">
                                <p style=""font-size:50px; font-weight:bold;""
                                ></p>
                                <div style=""width:240px; margin: auto;"">
                                    <img src=""images/D52.png"" style= ""width:200px""alt=""img"">
                                </div>
                            </div>","-24","","0","images/D52.png","","","","[""Coarse"",""Fine""]"
"","","","","","html-slider-response","32","132719","0.0-26.0","c8ak4w16uu","NaN","<div style=""width:500px;"">
                                <p style=""font-size:50px; font-weight:bold;""
                                ></p>
                                <div style=""width:240px; margin: auto;"">
                                    <img src=""images/D4.png"" style= ""width:200px""alt=""img"">
                                </div>
                            </div>","-178","","0","images/D4.png","","","","[""Coarse"",""Fine""]"
"","","","","","html-slider-response","33","134465","0.0-27.0","c8ak4w16uu","NaN","<div style=""width:500px;"">
                                <p style=""font-size:50px; font-weight:bold;""
                                ></p>
                                <div style=""width:240px; margin: auto;"">
                                    <img src=""images/D14.png"" style= ""width:200px""alt=""img"">
                                </div>
                            </div>","-18","","0","images/D14.png","","","","[""Coarse"",""Fine""]"
"","","","","","html-slider-response","34","136769","0.0-28.0","c8ak4w16uu","NaN","<div style=""width:500px;"">
                                <p style=""font-size:50px; font-weight:bold;""
                                ></p>
                                <div style=""width:240px; margin: auto;"">
                                    <img src=""images/D35.png"" style= ""width:200px""alt=""img"">
                                </div>
                            </div>","-65","","0","images/D35.png","","","","[""Coarse"",""Fine""]"
"","","","","","html-slider-response","35","138874","0.0-29.0","c8ak4w16uu","NaN","<div style=""width:500px;"">
                                <p style=""font-size:50px; font-weight:bold;""
                                ></p>
                                <div style=""width:240px; margin: auto;"">
                                    <img src=""images/D66.png"" style= ""width:200px""alt=""img"">
                                </div>
                            </div>","70","","0","images/D66.png","","","","[""Coarse"",""Fine""]"
"","","","","","html-slider-response","36","141348","0.0-30.0","c8ak4w16uu","NaN","<div style=""width:500px;"">
                                <p style=""font-size:50px; font-weight:bold;""
                                ></p>
                                <div style=""width:240px; margin: auto;"">
                                    <img src=""images/D111.png"" style= ""width:200px""alt=""img"">
                                </div>
                            </div>","185","","0","images/D111.png","","","","[""Coarse"",""Fine""]"
"","","","","","html-slider-response","37","143420","0.0-31.0","c8ak4w16uu","NaN","<div style=""width:500px;"">
                                <p style=""font-size:50px; font-weight:bold;""
                                ></p>
                                <div style=""width:240px; margin: auto;"">
                                    <img src=""images/D6.png"" style= ""width:200px""alt=""img"">
                                </div>
                            </div>","90","","0","images/D6.png","","","","[""Coarse"",""Fine""]"
"","","","","","html-slider-response","38","146064","0.0-32.0","c8ak4w16uu","NaN","<div style=""width:500px;"">
                                <p style=""font-size:50px; font-weight:bold;""
                                ></p>
                                <div style=""width:240px; margin: auto;"">
                                    <img src=""images/D101.png"" style= ""width:200px""alt=""img"">
                                </div>
                            </div>","18","","0","images/D101.png","","","","[""Coarse"",""Fine""]"
"","","","","","html-slider-response","39","147968","0.0-33.0","c8ak4w16uu","NaN","<div style=""width:500px;"">
                                <p style=""font-size:50px; font-weight:bold;""
                                ></p>
                                <div style=""width:240px; margin: auto;"">
                                    <img src=""images/D92.png"" style= ""width:200px""alt=""img"">
                                </div>
                            </div>","-83","","0","images/D92.png","","","","[""Coarse"",""Fine""]"
"","","","","","html-slider-response","40","150037","0.0-34.0","c8ak4w16uu","NaN","<div style=""width:500px;"">
                                <p style=""font-size:50px; font-weight:bold;""
                                ></p>
                                <div style=""width:240px; margin: auto;"">
                                    <img src=""images/D102.png"" style= ""width:200px""alt=""img"">
                                </div>
                            </div>","-41","","0","images/D102.png","","","","[""Coarse"",""Fine""]"
"","","","","","html-slider-response","41","152426","0.0-35.0","c8ak4w16uu","NaN","<div style=""width:500px;"">
                                <p style=""font-size:50px; font-weight:bold;""
                                ></p>
                                <div style=""width:240px; margin: auto;"">
                                    <img src=""images/D48.png"" style= ""width:200px""alt=""img"">
                                </div>
                            </div>","156","","0","images/D48.png","","","","[""Coarse"",""Fine""]"
"","","","","","html-slider-response","42","154574","0.0-36.0","c8ak4w16uu","NaN","<div style=""width:500px;"">
                                <p style=""font-size:50px; font-weight:bold;""
                                ></p>
                                <div style=""width:240px; margin: auto;"">
                                    <img src=""images/D9.png"" style= ""width:200px""alt=""img"">
                                </div>
                            </div>","-143","","0","images/D9.png","","","","[""Coarse"",""Fine""]"
"","","","","","html-slider-response","43","156878","0.0-37.0","c8ak4w16uu","NaN","<div style=""width:500px;"">
                                <p style=""font-size:50px; font-weight:bold;""
                                ></p>
                                <div style=""width:240px; margin: auto;"">
                                    <img src=""images/D51.png"" style= ""width:200px""alt=""img"">
                                </div>
                            </div>","34","","0","images/D51.png","","","","[""Coarse"",""Fine""]"
"","","","","","html-slider-response","44","158537","0.0-38.0","c8ak4w16uu","NaN","<div style=""width:500px;"">
                                <p style=""font-size:50px; font-weight:bold;""
                                ></p>
                                <div style=""width:240px; margin: auto;"">
                                    <img src=""images/D57.png"" style= ""width:200px""alt=""img"">
                                </div>
                            </div>","-118","","0","images/D57.png","","","","[""Coarse"",""Fine""]"
"","","","","","html-slider-response","45","160414","0.0-39.0","c8ak4w16uu","NaN","<div style=""width:500px;"">
                                <p style=""font-size:50px; font-weight:bold;""
                                ></p>
                                <div style=""width:240px; margin: auto;"">
                                    <img src=""images/D104.png"" style= ""width:200px""alt=""img"">
                                </div>
                            </div>","17","","0","images/D104.png","","","","[""Coarse"",""Fine""]"
"","","","","","html-slider-response","46","162663","0.0-40.0","c8ak4w16uu","NaN","<div style=""width:500px;"">
                                <p style=""font-size:50px; font-weight:bold;""
                                ></p>
                                <div style=""width:240px; margin: auto;"">
                                    <img src=""images/D53.png"" style= ""width:200px""alt=""img"">
                                </div>
                            </div>","44","","0","images/D53.png","","","","[""Coarse"",""Fine""]"
"","","","","","html-slider-response","47","164707","0.0-41.0","c8ak4w16uu","NaN","<div style=""width:500px;"">
                                <p style=""font-size:50px; font-weight:bold;""
                                ></p>
                                <div style=""width:240px; margin: auto;"">
                                    <img src=""images/D26.png"" style= ""width:200px""alt=""img"">
                                </div>
                            </div>","-194","","0","images/D26.png","","","","[""Coarse"",""Fine""]"
"","","","","","html-slider-response","48","167043","0.0-42.0","c8ak4w16uu","NaN","<div style=""width:500px;"">
                                <p style=""font-size:50px; font-weight:bold;""
                                ></p>
                                <div style=""width:240px; margin: auto;"">
                                    <img src=""images/D25.png"" style= ""width:200px""alt=""img"">
                                </div>
                            </div>","-200","","0","images/D25.png","","","","[""Coarse"",""Fine""]"
"","","","","","html-slider-response","49","169680","0.0-43.0","c8ak4w16uu","NaN","<div style=""width:500px;"">
                                <p style=""font-size:50px; font-weight:bold;""
                                ></p>
                                <div style=""width:240px; margin: auto;"">
                                    <img src=""images/D81.png"" style= ""width:200px""alt=""img"">
                                </div>
                            </div>","-84","","0","images/D81.png","","","","[""Coarse"",""Fine""]"
"","","","","","html-slider-response","50","171509","0.0-44.0","c8ak4w16uu","NaN","<div style=""width:500px;"">
                                <p style=""font-size:50px; font-weight:bold;""
                                ></p>
                                <div style=""width:240px; margin: auto;"">
                                    <img src=""images/D79.png"" style= ""width:200px""alt=""img"">
                                </div>
                            </div>","200","","0","images/D79.png","","","","[""Coarse"",""Fine""]"
"","","","","","html-slider-response","51","174336","0.0-45.0","c8ak4w16uu","NaN","<div style=""width:500px;"">
                                <p style=""font-size:50px; font-weight:bold;""
                                ></p>
                                <div style=""width:240px; margin: auto;"">
                                    <img src=""images/D36.png"" style= ""width:200px""alt=""img"">
                                </div>
                            </div>","-24","","0","images/D36.png","","","","[""Coarse"",""Fine""]"
"","","","","","html-slider-response","52","176127","0.0-46.0","c8ak4w16uu","NaN","<div style=""width:500px;"">
                                <p style=""font-size:50px; font-weight:bold;""
                                ></p>
                                <div style=""width:240px; margin: auto;"">
                                    <img src=""images/D17.png"" style= ""width:200px""alt=""img"">
                                </div>
                            </div>","67","","0","images/D17.png","","","","[""Coarse"",""Fine""]"
"","","","","","html-slider-response","53","177706","0.0-47.0","c8ak4w16uu","NaN","<div style=""width:500px;"">
                                <p style=""font-size:50px; font-weight:bold;""
                                ></p>
                                <div style=""width:240px; margin: auto;"">
                                    <img src=""images/D22.png"" style= ""width:200px""alt=""img"">
                                </div>
                            </div>","-35","","0","images/D22.png","","","","[""Coarse"",""Fine""]"
"","","","","","html-slider-response","54","179441","0.0-48.0","c8ak4w16uu","NaN","<div style=""width:500px;"">
                                <p style=""font-size:50px; font-weight:bold;""
                                ></p>
                                <div style=""width:240px; margin: auto;"">
                                    <img src=""images/D32.png"" style= ""width:200px""alt=""img"">
                                </div>
                            </div>","-95","","0","images/D32.png","","","","[""Coarse"",""Fine""]"
"","","","","","html-slider-response","55","181250","0.0-49.0","c8ak4w16uu","NaN","<div style=""width:500px;"">
                                <p style=""font-size:50px; font-weight:bold;""
                                ></p>
                                <div style=""width:240px; margin: auto;"">
                                    <img src=""images/D47.png"" style= ""width:200px""alt=""img"">
                                </div>
                            </div>","-68","","0","images/D47.png","","","","[""Coarse"",""Fine""]"
"","","","","","html-slider-response","56","182947","0.0-50.0","c8ak4w16uu","NaN","<div style=""width:500px;"">
                                <p style=""font-size:50px; font-weight:bold;""
                                ></p>
                                <div style=""width:240px; margin: auto;"">
                                    <img src=""images/D29.png"" style= ""width:200px""alt=""img"">
                                </div>
                            </div>","-40","","0","images/D29.png","","","","[""Coarse"",""Fine""]"
"","","","","","html-slider-response","57","184600","0.0-51.0","c8ak4w16uu","NaN","<div style=""width:500px;"">
                                <p style=""font-size:50px; font-weight:bold;""
                                ></p>
                                <div style=""width:240px; margin: auto;"">
                                    <img src=""images/D83.png"" style= ""width:200px""alt=""img"">
                                </div>
                            </div>","-91","","0","images/D83.png","","","","[""Coarse"",""Fine""]"
"","","","","","html-slider-response","58","186940","0.0-52.0","c8ak4w16uu","NaN","<div style=""width:500px;"">
                                <p style=""font-size:50px; font-weight:bold;""
                                ></p>
                                <div style=""width:240px; margin: auto;"">
                                    <img src=""images/D84.png"" style= ""width:200px""alt=""img"">
                                </div>
                            </div>","-78","","0","images/D84.png","","","","[""Coarse"",""Fine""]"
"","","","","","html-slider-response","59","188992","0.0-53.0","c8ak4w16uu","NaN","<div style=""width:500px;"">
                                <p style=""font-size:50px; font-weight:bold;""
                                ></p>
                                <div style=""width:240px; margin: auto;"">
                                    <img src=""images/D24.png"" style= ""width:200px""alt=""img"">
                                </div>
                            </div>","-109","","0","images/D24.png","","","","[""Coarse"",""Fine""]"
"","","","","","html-slider-response","60","190866","0.0-54.0","c8ak4w16uu","NaN","<div style=""width:500px;"">
                                <p style=""font-size:50px; font-weight:bold;""
                                ></p>
                                <div style=""width:240px; margin: auto;"">
                                    <img src=""images/D3.png"" style= ""width:200px""alt=""img"">
                                </div>
                            </div>","72","","0","images/D3.png","","","","[""Coarse"",""Fine""]"
"","","","","","html-slider-response","61","192599","0.0-55.0","c8ak4w16uu","NaN","<div style=""width:500px;"">
                                <p style=""font-size:50px; font-weight:bold;""
                                ></p>
                                <div style=""width:240px; margin: auto;"">
                                    <img src=""images/D75.png"" style= ""width:200px""alt=""img"">
                                </div>
                            </div>","126","","0","images/D75.png","","","","[""Coarse"",""Fine""]"
"","","","","","html-slider-response","62","194133","0.0-56.0","c8ak4w16uu","NaN","<div style=""width:500px;"">
                                <p style=""font-size:50px; font-weight:bold;""
                                ></p>
                                <div style=""width:240px; margin: auto;"">
                                    <img src=""images/D78.png"" style= ""width:200px""alt=""img"">
                                </div>
                            </div>","196","","0","images/D78.png","","","","[""Coarse"",""Fine""]"
"","","","","","html-slider-response","63","195804","0.0-57.0","c8ak4w16uu","NaN","<div style=""width:500px;"">
                                <p style=""font-size:50px; font-weight:bold;""
                                ></p>
                                <div style=""width:240px; margin: auto;"">
                                    <img src=""images/D95.png"" style= ""width:200px""alt=""img"">
                                </div>
                            </div>","-25","","0","images/D95.png","","","","[""Coarse"",""Fine""]"
"","","","","","html-slider-response","64","197491","0.0-58.0","c8ak4w16uu","NaN","<div style=""width:500px;"">
                                <p style=""font-size:50px; font-weight:bold;""
                                ></p>
                                <div style=""width:240px; margin: auto;"">
                                    <img src=""images/D96.png"" style= ""width:200px""alt=""img"">
                                </div>
                            </div>","-78","","0","images/D96.png","","","","[""Coarse"",""Fine""]"
"","","","","","html-slider-response","65","199607","0.0-59.0","c8ak4w16uu","NaN","<div style=""width:500px;"">
                                <p style=""font-size:50px; font-weight:bold;""
                                ></p>
                                <div style=""width:240px; margin: auto;"">
                                    <img src=""images/D18.png"" style= ""width:200px""alt=""img"">
                                </div>
                            </div>","-33","","0","images/D18.png","","","","[""Coarse"",""Fine""]"
"","","","","","html-slider-response","66","202172","0.0-60.0","c8ak4w16uu","NaN","<div style=""width:500px;"">
                                <p style=""font-size:50px; font-weight:bold;""
                                ></p>
                                <div style=""width:240px; margin: auto;"">
                                    <img src=""images/D65.png"" style= ""width:200px""alt=""img"">
                                </div>
                            </div>","-59","","0","images/D65.png","","","","[""Coarse"",""Fine""]"
"","","","","","html-slider-response","67","204374","0.0-61.0","c8ak4w16uu","NaN","<div style=""width:500px;"">
                                <p style=""font-size:50px; font-weight:bold;""
                                ></p>
                                <div style=""width:240px; margin: auto;"">
                                    <img src=""images/D106.png"" style= ""width:200px""alt=""img"">
                                </div>
                            </div>","151","","0","images/D106.png","","","","[""Coarse"",""Fine""]"
"","","","","","html-slider-response","68","206387","0.0-62.0","c8ak4w16uu","NaN","<div style=""width:500px;"">
                                <p style=""font-size:50px; font-weight:bold;""
                                ></p>
                                <div style=""width:240px; margin: auto;"">
                                    <img src=""images/D56.png"" style= ""width:200px""alt=""img"">
                                </div>
                            </div>","-107","","0","images/D56.png","","","","[""Coarse"",""Fine""]"
"","","","","","html-slider-response","69","208265","0.0-63.0","c8ak4w16uu","NaN","<div style=""width:500px;"">
                                <p style=""font-size:50px; font-weight:bold;""
                                ></p>
                                <div style=""width:240px; margin: auto;"">
                                    <img src=""images/D55.png"" style= ""width:200px""alt=""img"">
                                </div>
                            </div>","-68","","0","images/D55.png","","","","[""Coarse"",""Fine""]"
"","","","","","html-slider-response","70","210222","0.0-64.0","c8ak4w16uu","NaN","<div style=""width:500px;"">
                                <p style=""font-size:50px; font-weight:bold;""
                                ></p>
                                <div style=""width:240px; margin: auto;"">
                                    <img src=""images/D21.png"" style= ""width:200px""alt=""img"">
                                </div>
                            </div>","200","","0","images/D21.png","","","","[""Coarse"",""Fine""]"
"","","","","","html-slider-response","71","211841","0.0-65.0","c8ak4w16uu","NaN","<div style=""width:500px;"">
                                <p style=""font-size:50px; font-weight:bold;""
                                ></p>
                                <div style=""width:240px; margin: auto;"">
                                    <img src=""images/D1.png"" style= ""width:200px""alt=""img"">
                                </div>
                            </div>","-46","","0","images/D1.png","","","","[""Coarse"",""Fine""]"
"","","","","","html-slider-response","72","214249","0.0-66.0","c8ak4w16uu","NaN","<div style=""width:500px;"">
                                <p style=""font-size:50px; font-weight:bold;""
                                ></p>
                                <div style=""width:240px; margin: auto;"">
                                    <img src=""images/D80.png"" style= ""width:200px""alt=""img"">
                                </div>
                            </div>","-101","","0","images/D80.png","","","","[""Coarse"",""Fine""]"
"","","","","","html-slider-response","73","216520","0.0-67.0","c8ak4w16uu","NaN","<div style=""width:500px;"">
                                <p style=""font-size:50px; font-weight:bold;""
                                ></p>
                                <div style=""width:240px; margin: auto;"">
                                    <img src=""images/D105.png"" style= ""width:200px""alt=""img"">
                                </div>
                            </div>","71","","0","images/D105.png","","","","[""Coarse"",""Fine""]"
"","","","","","html-slider-response","74","218352","0.0-68.0","c8ak4w16uu","NaN","<div style=""width:500px;"">
                                <p style=""font-size:50px; font-weight:bold;""
                                ></p>
                                <div style=""width:240px; margin: auto;"">
                                    <img src=""images/D19.png"" style= ""width:200px""alt=""img"">
                                </div>
                            </div>","-81","","0","images/D19.png","","","","[""Coarse"",""Fine""]"
"","","","","","html-slider-response","75","219881","0.0-69.0","c8ak4w16uu","NaN","<div style=""width:500px;"">
                                <p style=""font-size:50px; font-weight:bold;""
                                ></p>
                                <div style=""width:240px; margin: auto;"">
                                    <img src=""images/D74.png"" style= ""width:200px""alt=""img"">
                                </div>
                            </div>","128","","0","images/D74.png","","","","[""Coarse"",""Fine""]"
"","","","","","html-slider-response","76","221633","0.0-70.0","c8ak4w16uu","NaN","<div style=""width:500px;"">
                                <p style=""font-size:50px; font-weight:bold;""
                                ></p>
                                <div style=""width:240px; margin: auto;"">
                                    <img src=""images/D11.png"" style= ""width:200px""alt=""img"">
                                </div>
                            </div>","52","","0","images/D11.png","","","","[""Coarse"",""Fine""]"
"","","","","","html-slider-response","77","223268","0.0-71.0","c8ak4w16uu","NaN","<div style=""width:500px;"">
                                <p style=""font-size:50px; font-weight:bold;""
                                ></p>
                                <div style=""width:240px; margin: auto;"">
                                    <img src=""images/D68.png"" style= ""width:200px""alt=""img"">
                                </div>
                            </div>","132","","0","images/D68.png","","","","[""Coarse"",""Fine""]"
"","","","","","html-slider-response","78","225037","0.0-72.0","c8ak4w16uu","NaN","<div style=""width:500px;"">
                                <p style=""font-size:50px; font-weight:bold;""
                                ></p>
                                <div style=""width:240px; margin: auto;"">
                                    <img src=""images/D94.png"" style= ""width:200px""alt=""img"">
                                </div>
                            </div>","-134","","0","images/D94.png","","","","[""Coarse"",""Fine""]"
"","","","","","html-slider-response","79","226543","0.0-73.0","c8ak4w16uu","NaN","<div style=""width:500px;"">
                                <p style=""font-size:50px; font-weight:bold;""
                                ></p>
                                <div style=""width:240px; margin: auto;"">
                                    <img src=""images/D76.png"" style= ""width:200px""alt=""img"">
                                </div>
                            </div>","22","","0","images/D76.png","","","","[""Coarse"",""Fine""]"
"","","","","","html-slider-response","80","228114","0.0-74.0","c8ak4w16uu","NaN","<div style=""width:500px;"">
                                <p style=""font-size:50px; font-weight:bold;""
                                ></p>
                                <div style=""width:240px; margin: auto;"">
                                    <img src=""images/D82.png"" style= ""width:200px""alt=""img"">
                                </div>
                            </div>","30","","0","images/D82.png","","","","[""Coarse"",""Fine""]"
"","","","","","html-slider-response","81","229943","0.0-75.0","c8ak4w16uu","NaN","<div style=""width:500px;"">
                                <p style=""font-size:50px; font-weight:bold;""
                                ></p>
                                <div style=""width:240px; margin: auto;"">
                                    <img src=""images/D34.png"" style= ""width:200px""alt=""img"">
                                </div>
                            </div>","-39","","0","images/D34.png","","","","[""Coarse"",""Fine""]"
"","","","","","html-button-response","82","233293","0.0-76.0","c8ak4w16uu","2847","You have completed the first block of trials out of six. Please click 'Continue' when you are ready proceed.","0","","","","","","",""
"","","","","","html-button-response","83","234712","0.0-77.0","c8ak4w16uu","1418","In the following trials, you will be asked to rate textures on the scale <b>Blobby</b> versus <b>Stripey</b>. Please click 'Continue' when you are ready proceed.","0","","","","","","",""
"","","","","","html-slider-response","84","238774","0.0-78.0","c8ak4w16uu","NaN","<div style=""width:500px;"">
                                <p style=""font-size:50px; font-weight:bold;""
                                ></p>
                                <div style=""width:240px; margin: auto;"">
                                    <img src=""images/D77.png"" style= ""width:200px""alt=""img"">
                                </div>
                            </div>","141","","0","images/D77.png","","","","[""Blobby"",""Stripey""]"
"","","","","","html-slider-response","85","240558","0.0-79.0","c8ak4w16uu","NaN","<div style=""width:500px;"">
                                <p style=""font-size:50px; font-weight:bold;""
                                ></p>
                                <div style=""width:240px; margin: auto;"">
                                    <img src=""images/D8.png"" style= ""width:200px""alt=""img"">
                                </div>
                            </div>","117","","0","images/D8.png","","","","[""Blobby"",""Stripey""]"
"","","","","","html-slider-response","86","242336","0.0-80.0","c8ak4w16uu","NaN","<div style=""width:500px;"">
                                <p style=""font-size:50px; font-weight:bold;""
                                ></p>
                                <div style=""width:240px; margin: auto;"">
                                    <img src=""images/D87.png"" style= ""width:200px""alt=""img"">
                                </div>
                            </div>","-68","","0","images/D87.png","","","","[""Blobby"",""Stripey""]"
"","","","","","html-slider-response","87","244805","0.0-81.0","c8ak4w16uu","NaN","<div style=""width:500px;"">
                                <p style=""font-size:50px; font-weight:bold;""
                                ></p>
                                <div style=""width:240px; margin: auto;"">
                                    <img src=""images/D103.png"" style= ""width:200px""alt=""img"">
                                </div>
                            </div>","-24","","0","images/D103.png","","","","[""Blobby"",""Stripey""]"
"","","","","","html-slider-response","88","258170","0.0-82.0","c8ak4w16uu","NaN","<div style=""width:500px;"">
                                <p style=""font-size:50px; font-weight:bold;""
                                ></p>
                                <div style=""width:240px; margin: auto;"">
                                    <img src=""images/D64.png"" style= ""width:200px""alt=""img"">
                                </div>
                            </div>","132","","0","images/D64.png","","","","[""Blobby"",""Stripey""]"
"","","","","","html-slider-response","89","260319","0.0-83.0","c8ak4w16uu","NaN","<div style=""width:500px;"">
                                <p style=""font-size:50px; font-weight:bold;""
                                ></p>
                                <div style=""width:240px; margin: auto;"">
                                    <img src=""images/D46.png"" style= ""width:200px""alt=""img"">
                                </div>
                            </div>","-6","","0","images/D46.png","","","","[""Blobby"",""Stripey""]"
"","","","","","html-slider-response","90","263546","0.0-84.0","c8ak4w16uu","NaN","<div style=""width:500px;"">
                                <p style=""font-size:50px; font-weight:bold;""
                                ></p>
                                <div style=""width:240px; margin: auto;"">
                                    <img src=""images/D16.png"" style= ""width:200px""alt=""img"">
                                </div>
                            </div>","135","","0","images/D16.png","","","","[""Blobby"",""Stripey""]"
"","","","","","html-slider-response","91","265274","0.0-85.0","c8ak4w16uu","NaN","<div style=""width:500px;"">
                                <p style=""font-size:50px; font-weight:bold;""
                                ></p>
                                <div style=""width:240px; margin: auto;"">
                                    <img src=""images/D49.png"" style= ""width:200px""alt=""img"">
                                </div>
                            </div>","200","","0","images/D49.png","","","","[""Blobby"",""Stripey""]"
"","","","","","html-slider-response","92","267185","0.0-86.0","c8ak4w16uu","NaN","<div style=""width:500px;"">
                                <p style=""font-size:50px; font-weight:bold;""
                                ></p>
                                <div style=""width:240px; margin: auto;"">
                                    <img src=""images/D20.png"" style= ""width:200px""alt=""img"">
                                </div>
                            </div>","114","","0","images/D20.png","","","","[""Blobby"",""Stripey""]"
"","","","","","html-slider-response","93","269248","0.0-87.0","c8ak4w16uu","NaN","<div style=""width:500px;"">
                                <p style=""font-size:50px; font-weight:bold;""
                                ></p>
                                <div style=""width:240px; margin: auto;"">
                                    <img src=""images/D37.png"" style= ""width:200px""alt=""img"">
                                </div>
                            </div>","-200","","0","images/D37.png","","","","[""Blobby"",""Stripey""]"
"","","","","","html-slider-response","94","270747","0.0-88.0","c8ak4w16uu","NaN","<div style=""width:500px;"">
                                <p style=""font-size:50px; font-weight:bold;""
                                ></p>
                                <div style=""width:240px; margin: auto;"">
                                    <img src=""images/D85.png"" style= ""width:200px""alt=""img"">
                                </div>
                            </div>","82","","0","images/D85.png","","","","[""Blobby"",""Stripey""]"
"","","","","","html-slider-response","95","273271","0.0-89.0","c8ak4w16uu","NaN","<div style=""width:500px;"">
                                <p style=""font-size:50px; font-weight:bold;""
                                ></p>
                                <div style=""width:240px; margin: auto;"">
                                    <img src=""images/D52.png"" style= ""width:200px""alt=""img"">
                                </div>
                            </div>","20","","0","images/D52.png","","","","[""Blobby"",""Stripey""]"
"","","","","","html-slider-response","96","275258","0.0-90.0","c8ak4w16uu","NaN","<div style=""width:500px;"">
                                <p style=""font-size:50px; font-weight:bold;""
                                ></p>
                                <div style=""width:240px; margin: auto;"">
                                    <img src=""images/D4.png"" style= ""width:200px""alt=""img"">
                                </div>
                            </div>","-187","","0","images/D4.png","","","","[""Blobby"",""Stripey""]"
"","","","","","html-slider-response","97","277025","0.0-91.0","c8ak4w16uu","NaN","<div style=""width:500px;"">
                                <p style=""font-size:50px; font-weight:bold;""
                                ></p>
                                <div style=""width:240px; margin: auto;"">
                                    <img src=""images/D14.png"" style= ""width:200px""alt=""img"">
                                </div>
                            </div>","125","","0","images/D14.png","","","","[""Blobby"",""Stripey""]"
"","","","","","html-slider-response","98","278914","0.0-92.0","c8ak4w16uu","NaN","<div style=""width:500px;"">
                                <p style=""font-size:50px; font-weight:bold;""
                                ></p>
                                <div style=""width:240px; margin: auto;"">
                                    <img src=""images/D35.png"" style= ""width:200px""alt=""img"">
                                </div>
                            </div>","-62","","0","images/D35.png","","","","[""Blobby"",""Stripey""]"
"","","","","","html-slider-response","99","280539","0.0-93.0","c8ak4w16uu","NaN","<div style=""width:500px;"">
                                <p style=""font-size:50px; font-weight:bold;""
                                ></p>
                                <div style=""width:240px; margin: auto;"">
                                    <img src=""images/D66.png"" style= ""width:200px""alt=""img"">
                                </div>
                            </div>","-140","","0","images/D66.png","","","","[""Blobby"",""Stripey""]"
"","","","","","html-slider-response","100","282366","0.0-94.0","c8ak4w16uu","NaN","<div style=""width:500px;"">
                                <p style=""font-size:50px; font-weight:bold;""
                                ></p>
                                <div style=""width:240px; margin: auto;"">
                                    <img src=""images/D111.png"" style= ""width:200px""alt=""img"">
                                </div>
                            </div>","-172","","0","images/D111.png","","","","[""Blobby"",""Stripey""]"
"","","","","","html-slider-response","101","284840","0.0-95.0","c8ak4w16uu","NaN","<div style=""width:500px;"">
                                <p style=""font-size:50px; font-weight:bold;""
                                ></p>
                                <div style=""width:240px; margin: auto;"">
                                    <img src=""images/D6.png"" style= ""width:200px""alt=""img"">
                                </div>
                            </div>","-50","","0","images/D6.png","","","","[""Blobby"",""Stripey""]"
"","","","","","html-slider-response","102","286408","0.0-96.0","c8ak4w16uu","NaN","<div style=""width:500px;"">
                                <p style=""font-size:50px; font-weight:bold;""
                                ></p>
                                <div style=""width:240px; margin: auto;"">
                                    <img src=""images/D101.png"" style= ""width:200px""alt=""img"">
                                </div>
                            </div>","-92","","0","images/D101.png","","","","[""Blobby"",""Stripey""]"
"","","","","","html-slider-response","103","287940","0.0-97.0","c8ak4w16uu","NaN","<div style=""width:500px;"">
                                <p style=""font-size:50px; font-weight:bold;""
                                ></p>
                                <div style=""width:240px; margin: auto;"">
                                    <img src=""images/D92.png"" style= ""width:200px""alt=""img"">
                                </div>
                            </div>","-96","","0","images/D92.png","","","","[""Blobby"",""Stripey""]"
"","","","","","html-slider-response","104","289483","0.0-98.0","c8ak4w16uu","NaN","<div style=""width:500px;"">
                                <p style=""font-size:50px; font-weight:bold;""
                                ></p>
                                <div style=""width:240px; margin: auto;"">
                                    <img src=""images/D102.png"" style= ""width:200px""alt=""img"">
                                </div>
                            </div>","-72","","0","images/D102.png","","","","[""Blobby"",""Stripey""]"
"","","","","","html-slider-response","105","291098","0.0-99.0","c8ak4w16uu","NaN","<div style=""width:500px;"">
                                <p style=""font-size:50px; font-weight:bold;""
                                ></p>
                                <div style=""width:240px; margin: auto;"">
                                    <img src=""images/D48.png"" style= ""width:200px""alt=""img"">
                                </div>
                            </div>","-66","","0","images/D48.png","","","","[""Blobby"",""Stripey""]"
"","","","","","html-slider-response","106","293255","0.0-100.0","c8ak4w16uu","NaN","<div style=""width:500px;"">
                                <p style=""font-size:50px; font-weight:bold;""
                                ></p>
                                <div style=""width:240px; margin: auto;"">
                                    <img src=""images/D9.png"" style= ""width:200px""alt=""img"">
                                </div>
                            </div>","-145","","0","images/D9.png","","","","[""Blobby"",""Stripey""]"
"","","","","","html-slider-response","107","296702","0.0-101.0","c8ak4w16uu","NaN","<div style=""width:500px;"">
                                <p style=""font-size:50px; font-weight:bold;""
                                ></p>
                                <div style=""width:240px; margin: auto;"">
                                    <img src=""images/D51.png"" style= ""width:200px""alt=""img"">
                                </div>
                            </div>","14","","0","images/D51.png","","","","[""Blobby"",""Stripey""]"
"","","","","","html-slider-response","108","298287","0.0-102.0","c8ak4w16uu","NaN","<div style=""width:500px;"">
                                <p style=""font-size:50px; font-weight:bold;""
                                ></p>
                                <div style=""width:240px; margin: auto;"">
                                    <img src=""images/D57.png"" style= ""width:200px""alt=""img"">
                                </div>
                            </div>","-131","","0","images/D57.png","","","","[""Blobby"",""Stripey""]"
"","","","","","html-slider-response","109","299868","0.0-103.0","c8ak4w16uu","NaN","<div style=""width:500px;"">
                                <p style=""font-size:50px; font-weight:bold;""
                                ></p>
                                <div style=""width:240px; margin: auto;"">
                                    <img src=""images/D104.png"" style= ""width:200px""alt=""img"">
                                </div>
                            </div>","-200","","0","images/D104.png","","","","[""Blobby"",""Stripey""]"
"","","","","","html-slider-response","110","302139","0.0-104.0","c8ak4w16uu","NaN","<div style=""width:500px;"">
                                <p style=""font-size:50px; font-weight:bold;""
                                ></p>
                                <div style=""width:240px; margin: auto;"">
                                    <img src=""images/D53.png"" style= ""width:200px""alt=""img"">
                                </div>
                            </div>","120","","0","images/D53.png","","","","[""Blobby"",""Stripey""]"
"","","","","","html-slider-response","111","303838","0.0-105.0","c8ak4w16uu","NaN","<div style=""width:500px;"">
                                <p style=""font-size:50px; font-weight:bold;""
                                ></p>
                                <div style=""width:240px; margin: auto;"">
                                    <img src=""images/D26.png"" style= ""width:200px""alt=""img"">
                                </div>
                            </div>","200","","0","images/D26.png","","","","[""Blobby"",""Stripey""]"
"","","","","","html-slider-response","112","305257","0.0-106.0","c8ak4w16uu","NaN","<div style=""width:500px;"">
                                <p style=""font-size:50px; font-weight:bold;""
                                ></p>
                                <div style=""width:240px; margin: auto;"">
                                    <img src=""images/D25.png"" style= ""width:200px""alt=""img"">
                                </div>
                            </div>","200","","0","images/D25.png","","","","[""Blobby"",""Stripey""]"
"","","","","","html-slider-response","113","307333","0.0-107.0","c8ak4w16uu","NaN","<div style=""width:500px;"">
                                <p style=""font-size:50px; font-weight:bold;""
                                ></p>
                                <div style=""width:240px; margin: auto;"">
                                    <img src=""images/D81.png"" style= ""width:200px""alt=""img"">
                                </div>
                            </div>","-51","","0","images/D81.png","","","","[""Blobby"",""Stripey""]"
"","","","","","html-slider-response","114","310173","0.0-108.0","c8ak4w16uu","NaN","<div style=""width:500px;"">
                                <p style=""font-size:50px; font-weight:bold;""
                                ></p>
                                <div style=""width:240px; margin: auto;"">
                                    <img src=""images/D79.png"" style= ""width:200px""alt=""img"">
                                </div>
                            </div>","199","","0","images/D79.png","","","","[""Blobby"",""Stripey""]"
"","","","","","html-slider-response","115","312319","0.0-109.0","c8ak4w16uu","NaN","<div style=""width:500px;"">
                                <p style=""font-size:50px; font-weight:bold;""
                                ></p>
                                <div style=""width:240px; margin: auto;"">
                                    <img src=""images/D36.png"" style= ""width:200px""alt=""img"">
                                </div>
                            </div>","-114","","0","images/D36.png","","","","[""Blobby"",""Stripey""]"
"","","","","","html-slider-response","116","314110","0.0-110.0","c8ak4w16uu","NaN","<div style=""width:500px;"">
                                <p style=""font-size:50px; font-weight:bold;""
                                ></p>
                                <div style=""width:240px; margin: auto;"">
                                    <img src=""images/D17.png"" style= ""width:200px""alt=""img"">
                                </div>
                            </div>","103","","0","images/D17.png","","","","[""Blobby"",""Stripey""]"
"","","","","","html-slider-response","117","316456","0.0-111.0","c8ak4w16uu","NaN","<div style=""width:500px;"">
                                <p style=""font-size:50px; font-weight:bold;""
                                ></p>
                                <div style=""width:240px; margin: auto;"">
                                    <img src=""images/D22.png"" style= ""width:200px""alt=""img"">
                                </div>
                            </div>","-103","","0","images/D22.png","","","","[""Blobby"",""Stripey""]"
"","","","","","html-slider-response","118","318624","0.0-112.0","c8ak4w16uu","NaN","<div style=""width:500px;"">
                                <p style=""font-size:50px; font-weight:bold;""
                                ></p>
                                <div style=""width:240px; margin: auto;"">
                                    <img src=""images/D32.png"" style= ""width:200px""alt=""img"">
                                </div>
                            </div>","-115","","0","images/D32.png","","","","[""Blobby"",""Stripey""]"
"","","","","","html-slider-response","119","322415","0.0-113.0","c8ak4w16uu","NaN","<div style=""width:500px;"">
                                <p style=""font-size:50px; font-weight:bold;""
                                ></p>
                                <div style=""width:240px; margin: auto;"">
                                    <img src=""images/D47.png"" style= ""width:200px""alt=""img"">
                                </div>
                            </div>","200","","0","images/D47.png","","","","[""Blobby"",""Stripey""]"
"","","","","","html-slider-response","120","324532","0.0-114.0","c8ak4w16uu","NaN","<div style=""width:500px;"">
                                <p style=""font-size:50px; font-weight:bold;""
                                ></p>
                                <div style=""width:240px; margin: auto;"">
                                    <img src=""images/D29.png"" style= ""width:200px""alt=""img"">
                                </div>
                            </div>","-150","","0","images/D29.png","","","","[""Blobby"",""Stripey""]"
"","","","","","html-slider-response","121","326203","0.0-115.0","c8ak4w16uu","NaN","<div style=""width:500px;"">
                                <p style=""font-size:50px; font-weight:bold;""
                                ></p>
                                <div style=""width:240px; margin: auto;"">
                                    <img src=""images/D83.png"" style= ""width:200px""alt=""img"">
                                </div>
                            </div>","58","","0","images/D83.png","","","","[""Blobby"",""Stripey""]"
"","","","","","html-slider-response","122","329130","0.0-116.0","c8ak4w16uu","NaN","<div style=""width:500px;"">
                                <p style=""font-size:50px; font-weight:bold;""
                                ></p>
                                <div style=""width:240px; margin: auto;"">
                                    <img src=""images/D84.png"" style= ""width:200px""alt=""img"">
                                </div>
                            </div>","-96","","0","images/D84.png","","","","[""Blobby"",""Stripey""]"
"","","","","","html-slider-response","123","332368","0.0-117.0","c8ak4w16uu","NaN","<div style=""width:500px;"">
                                <p style=""font-size:50px; font-weight:bold;""
                                ></p>
                                <div style=""width:240px; margin: auto;"">
                                    <img src=""images/D24.png"" style= ""width:200px""alt=""img"">
                                </div>
                            </div>","-80","","0","images/D24.png","","","","[""Blobby"",""Stripey""]"
"","","","","","html-slider-response","124","335135","0.0-118.0","c8ak4w16uu","NaN","<div style=""width:500px;"">
                                <p style=""font-size:50px; font-weight:bold;""
                                ></p>
                                <div style=""width:240px; margin: auto;"">
                                    <img src=""images/D3.png"" style= ""width:200px""alt=""img"">
                                </div>
                            </div>","-76","","0","images/D3.png","","","","[""Blobby"",""Stripey""]"
"","","","","","html-slider-response","125","337139","0.0-119.0","c8ak4w16uu","NaN","<div style=""width:500px;"">
                                <p style=""font-size:50px; font-weight:bold;""
                                ></p>
                                <div style=""width:240px; margin: auto;"">
                                    <img src=""images/D75.png"" style= ""width:200px""alt=""img"">
                                </div>
                            </div>","-169","","0","images/D75.png","","","","[""Blobby"",""Stripey""]"
"","","","","","html-slider-response","126","339232","0.0-120.0","c8ak4w16uu","NaN","<div style=""width:500px;"">
                                <p style=""font-size:50px; font-weight:bold;""
                                ></p>
                                <div style=""width:240px; margin: auto;"">
                                    <img src=""images/D78.png"" style= ""width:200px""alt=""img"">
                                </div>
                            </div>","134","","0","images/D78.png","","","","[""Blobby"",""Stripey""]"
"","","","","","html-slider-response","127","341783","0.0-121.0","c8ak4w16uu","NaN","<div style=""width:500px;"">
                                <p style=""font-size:50px; font-weight:bold;""
                                ></p>
                                <div style=""width:240px; margin: auto;"">
                                    <img src=""images/D95.png"" style= ""width:200px""alt=""img"">
                                </div>
                            </div>","200","","0","images/D95.png","","","","[""Blobby"",""Stripey""]"
"","","","","","html-slider-response","128","343501","0.0-122.0","c8ak4w16uu","NaN","<div style=""width:500px;"">
                                <p style=""font-size:50px; font-weight:bold;""
                                ></p>
                                <div style=""width:240px; margin: auto;"">
                                    <img src=""images/D96.png"" style= ""width:200px""alt=""img"">
                                </div>
                            </div>","122","","0","images/D96.png","","","","[""Blobby"",""Stripey""]"
"","","","","","html-slider-response","129","345333","0.0-123.0","c8ak4w16uu","NaN","<div style=""width:500px;"">
                                <p style=""font-size:50px; font-weight:bold;""
                                ></p>
                                <div style=""width:240px; margin: auto;"">
                                    <img src=""images/D18.png"" style= ""width:200px""alt=""img"">
                                </div>
                            </div>","144","","0","images/D18.png","","","","[""Blobby"",""Stripey""]"
"","","","","","html-slider-response","130","347383","0.0-124.0","c8ak4w16uu","NaN","<div style=""width:500px;"">
                                <p style=""font-size:50px; font-weight:bold;""
                                ></p>
                                <div style=""width:240px; margin: auto;"">
                                    <img src=""images/D65.png"" style= ""width:200px""alt=""img"">
                                </div>
                            </div>","146","","0","images/D65.png","","","","[""Blobby"",""Stripey""]"
"","","","","","html-slider-response","131","349356","0.0-125.0","c8ak4w16uu","NaN","<div style=""width:500px;"">
                                <p style=""font-size:50px; font-weight:bold;""
                                ></p>
                                <div style=""width:240px; margin: auto;"">
                                    <img src=""images/D106.png"" style= ""width:200px""alt=""img"">
                                </div>
                            </div>","128","","0","images/D106.png","","","","[""Blobby"",""Stripey""]"
"","","","","","html-slider-response","132","350822","0.0-126.0","c8ak4w16uu","NaN","<div style=""width:500px;"">
                                <p style=""font-size:50px; font-weight:bold;""
                                ></p>
                                <div style=""width:240px; margin: auto;"">
                                    <img src=""images/D56.png"" style= ""width:200px""alt=""img"">
                                </div>
                            </div>","170","","0","images/D56.png","","","","[""Blobby"",""Stripey""]"
"","","","","","html-slider-response","133","352420","0.0-127.0","c8ak4w16uu","NaN","<div style=""width:500px;"">
                                <p style=""font-size:50px; font-weight:bold;""
                                ></p>
                                <div style=""width:240px; margin: auto;"">
                                    <img src=""images/D55.png"" style= ""width:200px""alt=""img"">
                                </div>
                            </div>","121","","0","images/D55.png","","","","[""Blobby"",""Stripey""]"
"","","","","","html-slider-response","134","353784","0.0-128.0","c8ak4w16uu","NaN","<div style=""width:500px;"">
                                <p style=""font-size:50px; font-weight:bold;""
                                ></p>
                                <div style=""width:240px; margin: auto;"">
                                    <img src=""images/D21.png"" style= ""width:200px""alt=""img"">
                                </div>
                            </div>","94","","0","images/D21.png","","","","[""Blobby"",""Stripey""]"
"","","","","","html-slider-response","135","355283","0.0-129.0","c8ak4w16uu","NaN","<div style=""width:500px;"">
                                <p style=""font-size:50px; font-weight:bold;""
                                ></p>
                                <div style=""width:240px; margin: auto;"">
                                    <img src=""images/D1.png"" style= ""width:200px""alt=""img"">
                                </div>
                            </div>","200","","0","images/D1.png","","","","[""Blobby"",""Stripey""]"
"","","","","","html-slider-response","136","357439","0.0-130.0","c8ak4w16uu","NaN","<div style=""width:500px;"">
                                <p style=""font-size:50px; font-weight:bold;""
                                ></p>
                                <div style=""width:240px; margin: auto;"">
                                    <img src=""images/D80.png"" style= ""width:200px""alt=""img"">
                                </div>
                            </div>","101","","0","images/D80.png","","","","[""Blobby"",""Stripey""]"
"","","","","","html-slider-response","137","364673","0.0-131.0","c8ak4w16uu","NaN","<div style=""width:500px;"">
                                <p style=""font-size:50px; font-weight:bold;""
                                ></p>
                                <div style=""width:240px; margin: auto;"">
                                    <img src=""images/D105.png"" style= ""width:200px""alt=""img"">
                                </div>
                            </div>","189","","0","images/D105.png","","","","[""Blobby"",""Stripey""]"
"","","","","","html-slider-response","138","366232","0.0-132.0","c8ak4w16uu","NaN","<div style=""width:500px;"">
                                <p style=""font-size:50px; font-weight:bold;""
                                ></p>
                                <div style=""width:240px; margin: auto;"">
                                    <img src=""images/D19.png"" style= ""width:200px""alt=""img"">
                                </div>
                            </div>","-26","","0","images/D19.png","","","","[""Blobby"",""Stripey""]"
"","","","","","html-slider-response","139","367751","0.0-133.0","c8ak4w16uu","NaN","<div style=""width:500px;"">
                                <p style=""font-size:50px; font-weight:bold;""
                                ></p>
                                <div style=""width:240px; margin: auto;"">
                                    <img src=""images/D74.png"" style= ""width:200px""alt=""img"">
                                </div>
                            </div>","-170","","0","images/D74.png","","","","[""Blobby"",""Stripey""]"
"","","","","","html-slider-response","140","369322","0.0-134.0","c8ak4w16uu","NaN","<div style=""width:500px;"">
                                <p style=""font-size:50px; font-weight:bold;""
                                ></p>
                                <div style=""width:240px; margin: auto;"">
                                    <img src=""images/D11.png"" style= ""width:200px""alt=""img"">
                                </div>
                            </div>","54","","0","images/D11.png","","","","[""Blobby"",""Stripey""]"
"","","","","","html-slider-response","141","370890","0.0-135.0","c8ak4w16uu","NaN","<div style=""width:500px;"">
                                <p style=""font-size:50px; font-weight:bold;""
                                ></p>
                                <div style=""width:240px; margin: auto;"">
                                    <img src=""images/D68.png"" style= ""width:200px""alt=""img"">
                                </div>
                            </div>","64","","0","images/D68.png","","","","[""Blobby"",""Stripey""]"
"","","","","","html-slider-response","142","372461","0.0-136.0","c8ak4w16uu","NaN","<div style=""width:500px;"">
                                <p style=""font-size:50px; font-weight:bold;""
                                ></p>
                                <div style=""width:240px; margin: auto;"">
                                    <img src=""images/D94.png"" style= ""width:200px""alt=""img"">
                                </div>
                            </div>","144","","0","images/D94.png","","","","[""Blobby"",""Stripey""]"
"","","","","","html-slider-response","143","373853","0.0-137.0","c8ak4w16uu","NaN","<div style=""width:500px;"">
                                <p style=""font-size:50px; font-weight:bold;""
                                ></p>
                                <div style=""width:240px; margin: auto;"">
                                    <img src=""images/D76.png"" style= ""width:200px""alt=""img"">
                                </div>
                            </div>","172","","0","images/D76.png","","","","[""Blobby"",""Stripey""]"
"","","","","","html-slider-response","144","375793","0.0-138.0","c8ak4w16uu","NaN","<div style=""width:500px;"">
                                <p style=""font-size:50px; font-weight:bold;""
                                ></p>
                                <div style=""width:240px; margin: auto;"">
                                    <img src=""images/D82.png"" style= ""width:200px""alt=""img"">
                                </div>
                            </div>","-35","","0","images/D82.png","","","","[""Blobby"",""Stripey""]"
"","","","","","html-slider-response","145","377703","0.0-139.0","c8ak4w16uu","NaN","<div style=""width:500px;"">
                                <p style=""font-size:50px; font-weight:bold;""
                                ></p>
                                <div style=""width:240px; margin: auto;"">
                                    <img src=""images/D34.png"" style= ""width:200px""alt=""img"">
                                </div>
                            </div>","-131","","0","images/D34.png","","","","[""Blobby"",""Stripey""]"
"","","","","","html-button-response","146","379189","0.0-140.0","c8ak4w16uu","983","You have completed the second block of trials out of six. Please click 'Continue' when you are ready proceed.","0","","","","","","",""
"","","","","","html-button-response","147","380507","0.0-141.0","c8ak4w16uu","1317","In the following trials, you will be asked to rate textures on the scale <b>Hard</b> versus <b>Soft</b>. Please click 'Continue' when you are ready proceed.","0","","","","","","",""
"","","","","","html-slider-response","148","382051","0.0-142.0","c8ak4w16uu","NaN","<div style=""width:500px;"">
                                <p style=""font-size:50px; font-weight:bold;""
                                ></p>
                                <div style=""width:240px; margin: auto;"">
                                    <img src=""images/D95.png"" style= ""width:200px""alt=""img"">
                                </div>
                            </div>","-130","","0","images/D95.png","","","","[""Hard"",""Soft""]"
"","","","","","html-slider-response","149","384102","0.0-143.0","c8ak4w16uu","NaN","<div style=""width:500px;"">
                                <p style=""font-size:50px; font-weight:bold;""
                                ></p>
                                <div style=""width:240px; margin: auto;"">
                                    <img src=""images/D83.png"" style= ""width:200px""alt=""img"">
                                </div>
                            </div>","36","","0","images/D83.png","","","","[""Hard"",""Soft""]"
"","","","","","html-slider-response","150","385940","0.0-144.0","c8ak4w16uu","NaN","<div style=""width:500px;"">
                                <p style=""font-size:50px; font-weight:bold;""
                                ></p>
                                <div style=""width:240px; margin: auto;"">
                                    <img src=""images/D85.png"" style= ""width:200px""alt=""img"">
                                </div>
                            </div>","82","","0","images/D85.png","","","","[""Hard"",""Soft""]"
"","","","","","html-slider-response","151","388174","0.0-145.0","c8ak4w16uu","NaN","<div style=""width:500px;"">
                                <p style=""font-size:50px; font-weight:bold;""
                                ></p>
                                <div style=""width:240px; margin: auto;"">
                                    <img src=""images/D36.png"" style= ""width:200px""alt=""img"">
                                </div>
                            </div>","114","","0","images/D36.png","","","","[""Hard"",""Soft""]"
"","","","","","html-slider-response","152","390464","0.0-146.0","c8ak4w16uu","NaN","<div style=""width:500px;"">
                                <p style=""font-size:50px; font-weight:bold;""
                                ></p>
                                <div style=""width:240px; margin: auto;"">
                                    <img src=""images/D19.png"" style= ""width:200px""alt=""img"">
                                </div>
                            </div>","77","","0","images/D19.png","","","","[""Hard"",""Soft""]"
"","","","","","html-slider-response","153","392436","0.0-147.0","c8ak4w16uu","NaN","<div style=""width:500px;"">
                                <p style=""font-size:50px; font-weight:bold;""
                                ></p>
                                <div style=""width:240px; margin: auto;"">
                                    <img src=""images/D92.png"" style= ""width:200px""alt=""img"">
                                </div>
                            </div>","-142","","0","images/D92.png","","","","[""Hard"",""Soft""]"
"","","","","","html-slider-response","154","393958","0.0-148.0","c8ak4w16uu","NaN","<div style=""width:500px;"">
                                <p style=""font-size:50px; font-weight:bold;""
                                ></p>
                                <div style=""width:240px; margin: auto;"">
                                    <img src=""images/D1.png"" style= ""width:200px""alt=""img"">
                                </div>
                            </div>","-136","","0","images/D1.png","","","","[""Hard"",""Soft""]"
"","","","","","html-slider-response","155","395608","0.0-149.0","c8ak4w16uu","NaN","<div style=""width:500px;"">
                                <p style=""font-size:50px; font-weight:bold;""
                                ></p>
                                <div style=""width:240px; margin: auto;"">
                                    <img src=""images/D4.png"" style= ""width:200px""alt=""img"">
                                </div>
                            </div>","-142","","0","images/D4.png","","","","[""Hard"",""Soft""]"
"","","","","","html-slider-response","156","397558","0.0-150.0","c8ak4w16uu","NaN","<div style=""width:500px;"">
                                <p style=""font-size:50px; font-weight:bold;""
                                ></p>
                                <div style=""width:240px; margin: auto;"">
                                    <img src=""images/D82.png"" style= ""width:200px""alt=""img"">
                                </div>
                            </div>","20","","0","images/D82.png","","","","[""Hard"",""Soft""]"
"","","","","","html-slider-response","157","401701","0.0-151.0","c8ak4w16uu","NaN","<div style=""width:500px;"">
                                <p style=""font-size:50px; font-weight:bold;""
                                ></p>
                                <div style=""width:240px; margin: auto;"">
                                    <img src=""images/D3.png"" style= ""width:200px""alt=""img"">
                                </div>
                            </div>","23","","0","images/D3.png","","","","[""Hard"",""Soft""]"
"","","","","","html-slider-response","158","403352","0.0-152.0","c8ak4w16uu","NaN","<div style=""width:500px;"">
                                <p style=""font-size:50px; font-weight:bold;""
                                ></p>
                                <div style=""width:240px; margin: auto;"">
                                    <img src=""images/D53.png"" style= ""width:200px""alt=""img"">
                                </div>
                            </div>","24","","0","images/D53.png","","","","[""Hard"",""Soft""]"
"","","","","","html-slider-response","159","405142","0.0-153.0","c8ak4w16uu","NaN","<div style=""width:500px;"">
                                <p style=""font-size:50px; font-weight:bold;""
                                ></p>
                                <div style=""width:240px; margin: auto;"">
                                    <img src=""images/D11.png"" style= ""width:200px""alt=""img"">
                                </div>
                            </div>","26","","0","images/D11.png","","","","[""Hard"",""Soft""]"
"","","","","","html-slider-response","160","407264","0.0-154.0","c8ak4w16uu","NaN","<div style=""width:500px;"">
                                <p style=""font-size:50px; font-weight:bold;""
                                ></p>
                                <div style=""width:240px; margin: auto;"">
                                    <img src=""images/D52.png"" style= ""width:200px""alt=""img"">
                                </div>
                            </div>","-29","","0","images/D52.png","","","","[""Hard"",""Soft""]"
"","","","","","html-slider-response","161","409356","0.0-155.0","c8ak4w16uu","NaN","<div style=""width:500px;"">
                                <p style=""font-size:50px; font-weight:bold;""
                                ></p>
                                <div style=""width:240px; margin: auto;"">
                                    <img src=""images/D111.png"" style= ""width:200px""alt=""img"">
                                </div>
                            </div>","187","","0","images/D111.png","","","","[""Hard"",""Soft""]"
"","","","","","html-slider-response","162","411165","0.0-156.0","c8ak4w16uu","NaN","<div style=""width:500px;"">
                                <p style=""font-size:50px; font-weight:bold;""
                                ></p>
                                <div style=""width:240px; margin: auto;"">
                                    <img src=""images/D22.png"" style= ""width:200px""alt=""img"">
                                </div>
                            </div>","34","","0","images/D22.png","","","","[""Hard"",""Soft""]"
"","","","","","html-slider-response","163","412848","0.0-157.0","c8ak4w16uu","NaN","<div style=""width:500px;"">
                                <p style=""font-size:50px; font-weight:bold;""
                                ></p>
                                <div style=""width:240px; margin: auto;"">
                                    <img src=""images/D6.png"" style= ""width:200px""alt=""img"">
                                </div>
                            </div>","131","","0","images/D6.png","","","","[""Hard"",""Soft""]"
"","","","","","html-slider-response","164","414676","0.0-158.0","c8ak4w16uu","NaN","<div style=""width:500px;"">
                                <p style=""font-size:50px; font-weight:bold;""
                                ></p>
                                <div style=""width:240px; margin: auto;"">
                                    <img src=""images/D74.png"" style= ""width:200px""alt=""img"">
                                </div>
                            </div>","117","","0","images/D74.png","","","","[""Hard"",""Soft""]"
"","","","","","html-slider-response","165","416972","0.0-159.0","c8ak4w16uu","NaN","<div style=""width:500px;"">
                                <p style=""font-size:50px; font-weight:bold;""
                                ></p>
                                <div style=""width:240px; margin: auto;"">
                                    <img src=""images/D103.png"" style= ""width:200px""alt=""img"">
                                </div>
                            </div>","63","","0","images/D103.png","","","","[""Hard"",""Soft""]"
"","","","","","html-slider-response","166","422725","0.0-160.0","c8ak4w16uu","NaN","<div style=""width:500px;"">
                                <p style=""font-size:50px; font-weight:bold;""
                                ></p>
                                <div style=""width:240px; margin: auto;"">
                                    <img src=""images/D102.png"" style= ""width:200px""alt=""img"">
                                </div>
                            </div>","30","","0","images/D102.png","","","","[""Hard"",""Soft""]"
"","","","","","html-slider-response","167","424738","0.0-161.0","c8ak4w16uu","NaN","<div style=""width:500px;"">
                                <p style=""font-size:50px; font-weight:bold;""
                                ></p>
                                <div style=""width:240px; margin: auto;"">
                                    <img src=""images/D79.png"" style= ""width:200px""alt=""img"">
                                </div>
                            </div>","21","","0","images/D79.png","","","","[""Hard"",""Soft""]"
"","","","","","html-slider-response","168","426789","0.0-162.0","c8ak4w16uu","NaN","<div style=""width:500px;"">
                                <p style=""font-size:50px; font-weight:bold;""
                                ></p>
                                <div style=""width:240px; margin: auto;"">
                                    <img src=""images/D35.png"" style= ""width:200px""alt=""img"">
                                </div>
                            </div>","-42","","0","images/D35.png","","","","[""Hard"",""Soft""]"
"","","","","","html-slider-response","169","428456","0.0-163.0","c8ak4w16uu","NaN","<div style=""width:500px;"">
                                <p style=""font-size:50px; font-weight:bold;""
                                ></p>
                                <div style=""width:240px; margin: auto;"">
                                    <img src=""images/D76.png"" style= ""width:200px""alt=""img"">
                                </div>
                            </div>","-26","","0","images/D76.png","","","","[""Hard"",""Soft""]"
"","","","","","html-slider-response","170","430405","0.0-164.0","c8ak4w16uu","NaN","<div style=""width:500px;"">
                                <p style=""font-size:50px; font-weight:bold;""
                                ></p>
                                <div style=""width:240px; margin: auto;"">
                                    <img src=""images/D65.png"" style= ""width:200px""alt=""img"">
                                </div>
                            </div>","-112","","0","images/D65.png","","","","[""Hard"",""Soft""]"
"","","","","","html-slider-response","171","432590","0.0-165.0","c8ak4w16uu","NaN","<div style=""width:500px;"">
                                <p style=""font-size:50px; font-weight:bold;""
                                ></p>
                                <div style=""width:240px; margin: auto;"">
                                    <img src=""images/D78.png"" style= ""width:200px""alt=""img"">
                                </div>
                            </div>","43","","0","images/D78.png","","","","[""Hard"",""Soft""]"
"","","","","","html-slider-response","172","436270","0.0-166.0","c8ak4w16uu","NaN","<div style=""width:500px;"">
                                <p style=""font-size:50px; font-weight:bold;""
                                ></p>
                                <div style=""width:240px; margin: auto;"">
                                    <img src=""images/D105.png"" style= ""width:200px""alt=""img"">
                                </div>
                            </div>","-22","","0","images/D105.png","","","","[""Hard"",""Soft""]"
"","","","","","html-slider-response","173","438359","0.0-167.0","c8ak4w16uu","NaN","<div style=""width:500px;"">
                                <p style=""font-size:50px; font-weight:bold;""
                                ></p>
                                <div style=""width:240px; margin: auto;"">
                                    <img src=""images/D106.png"" style= ""width:200px""alt=""img"">
                                </div>
                            </div>","38","","0","images/D106.png","","","","[""Hard"",""Soft""]"
"","","","","","html-slider-response","174","440560","0.0-168.0","c8ak4w16uu","NaN","<div style=""width:500px;"">
                                <p style=""font-size:50px; font-weight:bold;""
                                ></p>
                                <div style=""width:240px; margin: auto;"">
                                    <img src=""images/D104.png"" style= ""width:200px""alt=""img"">
                                </div>
                            </div>","175","","0","images/D104.png","","","","[""Hard"",""Soft""]"
"","","","","","html-slider-response","175","442478","0.0-169.0","c8ak4w16uu","NaN","<div style=""width:500px;"">
                                <p style=""font-size:50px; font-weight:bold;""
                                ></p>
                                <div style=""width:240px; margin: auto;"">
                                    <img src=""images/D25.png"" style= ""width:200px""alt=""img"">
                                </div>
                            </div>","-150","","0","images/D25.png","","","","[""Hard"",""Soft""]"
"","","","","","html-slider-response","176","444264","0.0-170.0","c8ak4w16uu","NaN","<div style=""width:500px;"">
                                <p style=""font-size:50px; font-weight:bold;""
                                ></p>
                                <div style=""width:240px; margin: auto;"">
                                    <img src=""images/D14.png"" style= ""width:200px""alt=""img"">
                                </div>
                            </div>","134","","0","images/D14.png","","","","[""Hard"",""Soft""]"
"","","","","","html-slider-response","177","446605","0.0-171.0","c8ak4w16uu","NaN","<div style=""width:500px;"">
                                <p style=""font-size:50px; font-weight:bold;""
                                ></p>
                                <div style=""width:240px; margin: auto;"">
                                    <img src=""images/D57.png"" style= ""width:200px""alt=""img"">
                                </div>
                            </div>","-136","","0","images/D57.png","","","","[""Hard"",""Soft""]"
"","","","","","html-slider-response","178","448453","0.0-172.0","c8ak4w16uu","NaN","<div style=""width:500px;"">
                                <p style=""font-size:50px; font-weight:bold;""
                                ></p>
                                <div style=""width:240px; margin: auto;"">
                                    <img src=""images/D34.png"" style= ""width:200px""alt=""img"">
                                </div>
                            </div>","137","","0","images/D34.png","","","","[""Hard"",""Soft""]"
"","","","","","html-slider-response","179","450079","0.0-173.0","c8ak4w16uu","NaN","<div style=""width:500px;"">
                                <p style=""font-size:50px; font-weight:bold;""
                                ></p>
                                <div style=""width:240px; margin: auto;"">
                                    <img src=""images/D32.png"" style= ""width:200px""alt=""img"">
                                </div>
                            </div>","-134","","0","images/D32.png","","","","[""Hard"",""Soft""]"
"","","","","","html-slider-response","180","451664","0.0-174.0","c8ak4w16uu","NaN","<div style=""width:500px;"">
                                <p style=""font-size:50px; font-weight:bold;""
                                ></p>
                                <div style=""width:240px; margin: auto;"">
                                    <img src=""images/D26.png"" style= ""width:200px""alt=""img"">
                                </div>
                            </div>","-162","","0","images/D26.png","","","","[""Hard"",""Soft""]"
"","","","","","html-slider-response","181","453177","0.0-175.0","c8ak4w16uu","NaN","<div style=""width:500px;"">
                                <p style=""font-size:50px; font-weight:bold;""
                                ></p>
                                <div style=""width:240px; margin: auto;"">
                                    <img src=""images/D29.png"" style= ""width:200px""alt=""img"">
                                </div>
                            </div>","-191","","0","images/D29.png","","","","[""Hard"",""Soft""]"
"","","","","","html-slider-response","182","454514","0.0-176.0","c8ak4w16uu","NaN","<div style=""width:500px;"">
                                <p style=""font-size:50px; font-weight:bold;""
                                ></p>
                                <div style=""width:240px; margin: auto;"">
                                    <img src=""images/D94.png"" style= ""width:200px""alt=""img"">
                                </div>
                            </div>","-200","","0","images/D94.png","","","","[""Hard"",""Soft""]"
"","","","","","html-slider-response","183","456146","0.0-177.0","c8ak4w16uu","NaN","<div style=""width:500px;"">
                                <p style=""font-size:50px; font-weight:bold;""
                                ></p>
                                <div style=""width:240px; margin: auto;"">
                                    <img src=""images/D75.png"" style= ""width:200px""alt=""img"">
                                </div>
                            </div>","147","","0","images/D75.png","","","","[""Hard"",""Soft""]"
"","","","","","html-slider-response","184","459357","0.0-178.0","c8ak4w16uu","NaN","<div style=""width:500px;"">
                                <p style=""font-size:50px; font-weight:bold;""
                                ></p>
                                <div style=""width:240px; margin: auto;"">
                                    <img src=""images/D37.png"" style= ""width:200px""alt=""img"">
                                </div>
                            </div>","99","","0","images/D37.png","","","","[""Hard"",""Soft""]"
"","","","","","html-slider-response","185","461750","0.0-179.0","c8ak4w16uu","NaN","<div style=""width:500px;"">
                                <p style=""font-size:50px; font-weight:bold;""
                                ></p>
                                <div style=""width:240px; margin: auto;"">
                                    <img src=""images/D77.png"" style= ""width:200px""alt=""img"">
                                </div>
                            </div>","200","","0","images/D77.png","","","","[""Hard"",""Soft""]"
"","","","","","html-slider-response","186","463642","0.0-180.0","c8ak4w16uu","NaN","<div style=""width:500px;"">
                                <p style=""font-size:50px; font-weight:bold;""
                                ></p>
                                <div style=""width:240px; margin: auto;"">
                                    <img src=""images/D51.png"" style= ""width:200px""alt=""img"">
                                </div>
                            </div>","58","","0","images/D51.png","","","","[""Hard"",""Soft""]"
"","","","","","html-slider-response","187","465388","0.0-181.0","c8ak4w16uu","NaN","<div style=""width:500px;"">
                                <p style=""font-size:50px; font-weight:bold;""
                                ></p>
                                <div style=""width:240px; margin: auto;"">
                                    <img src=""images/D24.png"" style= ""width:200px""alt=""img"">
                                </div>
                            </div>","-122","","0","images/D24.png","","","","[""Hard"",""Soft""]"
"","","","","","html-slider-response","188","467667","0.0-182.0","c8ak4w16uu","NaN","<div style=""width:500px;"">
                                <p style=""font-size:50px; font-weight:bold;""
                                ></p>
                                <div style=""width:240px; margin: auto;"">
