"success","timeout","failed_images","failed_audio","failed_video","trial_type","trial_index","time_elapsed","internal_node_id","subject_id","rt","stimulus","response","question_order","slider_start","image_path","practiceTrial","practiceTrialNum","correct","slider_labels"
"true","false","[]","[]","[]","preload","0","564","0.0-0.0","e3wk0mnvwk","","","","","","","","","",""
"","","","","","html-button-response","1","1857","0.0-1.0","e3wk0mnvwk","1291","<div style='text-align:center; font-size:20px; line-height:25px; width: 1200px;'>
                Welcome to our experiment! <br>
                <br>At the bottom of this screen, you will see a button that says 'Begin Experiment.
                <br>Please only click that button when you are ready to complete the 25 minute experiment in one sitting. <br>
                <br> Once you click that button, it will not be possible to restart the experiment. <br><br>","0","","","","","","",""
"true","","","","","fullscreen","2","3729","0.0-2.0","e3wk0mnvwk","865","","","","","","","","",""
"","","","","","survey-multi-select","3","8009","0.0-3.0","e3wk0mnvwk","4276","","{""Consent"":[""<strong>I consent</strong>""]}","[0]","","","","","",""
"","","","","","html-button-response","4","9123","0.0-4.0","e3wk0mnvwk","1110","Welcome! <p> This experiment involves two parts: demographic information, followed by the experimental task.<p> It will take about 25 minutes to complete both parts.","0","","","","","","",""
"","","","","","survey-text","5","24324","0.0-5.0","e3wk0mnvwk","15150","","{""Age"":""19"",""Gender"":""Male"",""Race/ethnicity"":""Middle Eastern""}","","","","","","",""
"","","","","","html-slider-response","6","26356","0.0-6.0","e3wk0mnvwk","2029","
                <div style='text-align:center; height: auto; margin-left=-100px; margin-bottom: -20px; font-size:20px; line-height:5px; width: 1200px;'>
                    <br>During this experiment, you will see a series of textures, one at a time, like the ones below: 
                </div>
                    <br>
                    <br>
                    <img src=""anchoring_visual_textures.png"" alt=""img"" style=""max-width:1200px; margin-left: -10px;"">
                </div>
                <div style=""clear: both;""></div>
                </div>
                    <div style='text-align:center; margin-left=-100px; font-size:20px; line-height:20px; width: 1200px; margin-top: -50px;'>
                    
                    <br> For each texture, you will be asked to rate where you think it falls on each of the response scales with the following endpoints:
                    </div>
                            <div style=""text-align: center; width: 1400px; "">
                                <p style=""font-size:20px; line-height:5px; ""><b>Stripey</b> versus <b>Blobby</b></p>
                                <p style=""font-size:20px; line-height:5px; ""><b>Rectangular</b> versus <b>Rounded</b></p>
                                <p style=""font-size:20px;line-height:5px;""><b>Fine</b> versus <b>Coarse</b></p>
                                <p style=""font-size:20px;line-height:5px; ""><b>Smooth</b> versus <b>Rough</b></p>
                                <p style=""font-size:20px;line-height:5px; ""><b>Non-Random</b> versus <b>Random</b></p>
                                <p style=""font-size:20px;line-height:5px;""><b>Soft</b> versus <b>Hard</b></p>
                            </div>
                            <div style='text-align:center; font-size:20px; line-height:20px; width: 1400px;'>
                    
                    Each trial will include one texture and one response scale. You will be asked to make your rating by sliding the cursor along a slider response scale like the one below.
                    <br><br> Before beginning, please look at the textures and scales. For each scale, think about the texture you associate most with the left endpoint. When you see that texture for that response scale, please click near the left of the scale.
                    <br><br> Now, please think about the texture you associate most with the right endpoint of each scale. When you see that texture for that response scale, please click near the right of the scale. 
                    <br><br> If you think a texture is not strongly associated with either endpoint of the scale, please click near the midpoint of the scale. Please use the full range of the scale. 
                    <br><br> You will be asked to rate each texture for a given scale before moving on to the next scale.
                    <br><br> Please press the 'Continue' button for instructions on how to use the slider.                     <br><br>
                ","null","","0","visual_textures_anchoring.png","true","","",""
"","","","","","html-button-response","7","27490","0.0-7.0","e3wk0mnvwk","1131","<div style=""width:1200px; margin-top:-150px;""><p style=""text-align:center; font-size:24px;"">To move the slider, click and drag your cursor to the location of the scale where you would like to make your rating and then let go. <br><br> When you let go of the slider, your response will be recorded and the next trial will begin. <br><br><br>
                We are interested in your initial impressions of each texture and scale, so please go with your first intuition. <br><br>
                Before you begin the experiment, there will be four training trials for you to practice using the scale. <br><br><br><br></div>
                <div style=""width:1200px;""><p style=""text-align:center; font-size:20px;"">When you are ready to start the training trials, please click ""Continue"".</p></div>","0","","","","","","",""
"","","","","","html-slider-response","8","29068","0.0-8.0-0.0","e3wk0mnvwk","NaN","<div style=""width:500px;"">
                                <p style=""font-size:25px;"">Please move the slider all the way to the <br> right endpoint of the scale</p>

                                </div>
                            </div>","200","","0","","true","0","true",""
"","","","","","html-button-response","9","30706","0.0-8.0-1.0","e3wk0mnvwk","1131","<p align='center'><b>Good job!</b> Click on 'Continue' to proceed.</p>","0","","","","","","",""
"","","","","","html-slider-response","10","31886","0.0-9.0-0.0","e3wk0mnvwk","NaN","<div style=""width:500px;"">
                                <p style=""font-size:25px;"">Please move the slider all the way to the <br> left endpoint of the scale</p>

                                </div>
                            </div>","-199","","0","","true","1","true",""
"","","","","","html-button-response","11","32991","0.0-9.0-1.0","e3wk0mnvwk","597","<p align='center'><b>Good job!</b> Click on 'Continue' to proceed.</p>","0","","","","","","",""
"","","","","","html-slider-response","12","34740","0.0-10.0-0.0","e3wk0mnvwk","NaN","<div style=""width:500px;"">
                                <p style=""font-size:25px;"">Please move the slider halfway between the center and right endpoint of the scale</p>

                                </div>
                            </div>","118","","0","","true","2","false",""
"","","","","","html-button-response","13","36157","0.0-10.0-1.0","e3wk0mnvwk","909","<p align='center'><b>Not quite!</b> The slider was not placed near the instructed locattion. Click on 'Continue' to try again. </p>","0","","","","","","",""
"","","","","","html-slider-response","14","40157","0.0-10.1-0.1","e3wk0mnvwk","NaN","<div style=""width:500px;"">
                                <p style=""font-size:25px;"">Please move the slider halfway between the center and right endpoint of the scale</p>

                                </div>
                            </div>","107","","0","","true","2","true",""
"","","","","","html-button-response","15","41257","0.0-10.1-1.1","e3wk0mnvwk","592","<p align='center'><b>Good job!</b> Click on 'Continue' to proceed.</p>","0","","","","","","",""
"","","","","","html-slider-response","16","42806","0.0-11.0-0.0","e3wk0mnvwk","NaN","<div style=""width:500px;"">
                                <p style=""font-size:25px;"">Please move the slider halfway between the center and left endpoint of the scale</p>

                                </div>
                            </div>","-114","","0","","true","3","false",""
"","","","","","html-button-response","17","44073","0.0-11.0-1.0","e3wk0mnvwk","760","<p align='center'><b>Not quite!</b> The slider was not placed near the instructed locattion. Click on 'Continue' to try again. </p>","0","","","","","","",""
"","","","","","html-slider-response","18","47357","0.0-11.1-0.1","e3wk0mnvwk","NaN","<div style=""width:500px;"">
                                <p style=""font-size:25px;"">Please move the slider halfway between the center and left endpoint of the scale</p>

                                </div>
                            </div>","-100","","0","","true","3","true",""
"","","","","","html-button-response","19","48522","0.0-11.1-1.1","e3wk0mnvwk","658","<p align='center'><b>Good job!</b> Click on 'Continue' to proceed.</p>","0","","","","","","",""
"","","","","","html-button-response","20","49874","0.0-12.0","e3wk0mnvwk","1349","<div style=""width:800px; margin-top:-300px;""><p style=""text-align:center; font-size:22px; line-height:25px;""""> Great job! You've completed the practice trials.</div>
                     <div style=""width:800px; margin-top:-20px;""><p style=""text-align:center""><br><br> In the following trials, you will be asked to rate textures on each scale one-by-one. <br> You will be given opportunities to take breaks when you have completed each block of trials. There are six total blocks of trials. <br><br> Please click continue to begin the main task.<br><br><br> </div>","0","","","","","","",""
"","","","","","html-button-response","21","50840","0.0-13.0","e3wk0mnvwk","965","In the following trials, you will be asked to rate textures on the scale <b>Smooth</b> versus <b>Rough</b>. Please click 'Continue' when you are ready proceed.","0","","","","","","",""
"","","","","","html-slider-response","22","52974","0.0-14.0","e3wk0mnvwk","NaN","<div style=""width:500px;"">
                                <p style=""font-size:50px; font-weight:bold;""
                                ></p>
                                <div style=""width:240px; margin: auto;"">
                                    <img src=""images/D65.png"" style= ""width:200px""alt=""img"">
                                </div>
                            </div>","74","","0","images/D65.png","","","","[""Smooth"",""Rough""]"
"","","","","","html-slider-response","23","55005","0.0-15.0","e3wk0mnvwk","NaN","<div style=""width:500px;"">
                                <p style=""font-size:50px; font-weight:bold;""
                                ></p>
                                <div style=""width:240px; margin: auto;"">
                                    <img src=""images/D56.png"" style= ""width:200px""alt=""img"">
                                </div>
                            </div>","171","","0","images/D56.png","","","","[""Smooth"",""Rough""]"
"","","","","","html-slider-response","24","57040","0.0-16.0","e3wk0mnvwk","NaN","<div style=""width:500px;"">
                                <p style=""font-size:50px; font-weight:bold;""
                                ></p>
                                <div style=""width:240px; margin: auto;"">
                                    <img src=""images/D111.png"" style= ""width:200px""alt=""img"">
                                </div>
                            </div>","142","","0","images/D111.png","","","","[""Smooth"",""Rough""]"
"","","","","","html-slider-response","25","59122","0.0-17.0","e3wk0mnvwk","NaN","<div style=""width:500px;"">
                                <p style=""font-size:50px; font-weight:bold;""
                                ></p>
                                <div style=""width:240px; margin: auto;"">
                                    <img src=""images/D9.png"" style= ""width:200px""alt=""img"">
                                </div>
                            </div>","67","","0","images/D9.png","","","","[""Smooth"",""Rough""]"
"","","","","","html-slider-response","26","62025","0.0-18.0","e3wk0mnvwk","NaN","<div style=""width:500px;"">
                                <p style=""font-size:50px; font-weight:bold;""
                                ></p>
                                <div style=""width:240px; margin: auto;"">
                                    <img src=""images/D94.png"" style= ""width:200px""alt=""img"">
                                </div>
                            </div>","200","","0","images/D94.png","","","","[""Smooth"",""Rough""]"
"","","","","","html-slider-response","27","64157","0.0-19.0","e3wk0mnvwk","NaN","<div style=""width:500px;"">
                                <p style=""font-size:50px; font-weight:bold;""
                                ></p>
                                <div style=""width:240px; margin: auto;"">
                                    <img src=""images/D103.png"" style= ""width:200px""alt=""img"">
                                </div>
                            </div>","-45","","0","images/D103.png","","","","[""Smooth"",""Rough""]"
"","","","","","html-slider-response","28","65791","0.0-20.0","e3wk0mnvwk","NaN","<div style=""width:500px;"">
                                <p style=""font-size:50px; font-weight:bold;""
                                ></p>
                                <div style=""width:240px; margin: auto;"">
                                    <img src=""images/D17.png"" style= ""width:200px""alt=""img"">
                                </div>
                            </div>","-103","","0","images/D17.png","","","","[""Smooth"",""Rough""]"
"","","","","","html-slider-response","29","68541","0.0-21.0","e3wk0mnvwk","NaN","<div style=""width:500px;"">
                                <p style=""font-size:50px; font-weight:bold;""
                                ></p>
                                <div style=""width:240px; margin: auto;"">
                                    <img src=""images/D37.png"" style= ""width:200px""alt=""img"">
                                </div>
                            </div>","146","","0","images/D37.png","","","","[""Smooth"",""Rough""]"
"","","","","","html-slider-response","30","78708","0.0-22.0","e3wk0mnvwk","NaN","<div style=""width:500px;"">
                                <p style=""font-size:50px; font-weight:bold;""
                                ></p>
                                <div style=""width:240px; margin: auto;"">
                                    <img src=""images/D29.png"" style= ""width:200px""alt=""img"">
                                </div>
                            </div>","64","","0","images/D29.png","","","","[""Smooth"",""Rough""]"
"","","","","","html-slider-response","31","120605","0.0-23.0","e3wk0mnvwk","NaN","<div style=""width:500px;"">
                                <p style=""font-size:50px; font-weight:bold;""
                                ></p>
                                <div style=""width:240px; margin: auto;"">
                                    <img src=""images/D4.png"" style= ""width:200px""alt=""img"">
                                </div>
                            </div>","-56","","0","images/D4.png","","","","[""Smooth"",""Rough""]"
"","","","","","html-slider-response","32","123157","0.0-24.0","e3wk0mnvwk","NaN","<div style=""width:500px;"">
                                <p style=""font-size:50px; font-weight:bold;""
                                ></p>
                                <div style=""width:240px; margin: auto;"">
                                    <img src=""images/D64.png"" style= ""width:200px""alt=""img"">
                                </div>
                            </div>","85","","0","images/D64.png","","","","[""Smooth"",""Rough""]"
"","","","","","html-slider-response","33","125191","0.0-25.0","e3wk0mnvwk","NaN","<div style=""width:500px;"">
                                <p style=""font-size:50px; font-weight:bold;""
                                ></p>
                                <div style=""width:240px; margin: auto;"">
                                    <img src=""images/D80.png"" style= ""width:200px""alt=""img"">
                                </div>
                            </div>","-121","","0","images/D80.png","","","","[""Smooth"",""Rough""]"
"","","","","","html-slider-response","34","126842","0.0-26.0","e3wk0mnvwk","NaN","<div style=""width:500px;"">
                                <p style=""font-size:50px; font-weight:bold;""
                                ></p>
                                <div style=""width:240px; margin: auto;"">
                                    <img src=""images/D14.png"" style= ""width:200px""alt=""img"">
                                </div>
                            </div>","-184","","0","images/D14.png","","","","[""Smooth"",""Rough""]"
"","","","","","html-slider-response","35","128758","0.0-27.0","e3wk0mnvwk","NaN","<div style=""width:500px;"">
                                <p style=""font-size:50px; font-weight:bold;""
                                ></p>
                                <div style=""width:240px; margin: auto;"">
                                    <img src=""images/D102.png"" style= ""width:200px""alt=""img"">
                                </div>
                            </div>","-174","","0","images/D102.png","","","","[""Smooth"",""Rough""]"
"","","","","","html-slider-response","36","130691","0.0-28.0","e3wk0mnvwk","NaN","<div style=""width:500px;"">
                                <p style=""font-size:50px; font-weight:bold;""
                                ></p>
                                <div style=""width:240px; margin: auto;"">
                                    <img src=""images/D87.png"" style= ""width:200px""alt=""img"">
                                </div>
                            </div>","-46","","0","images/D87.png","","","","[""Smooth"",""Rough""]"
"","","","","","html-slider-response","37","132655","0.0-29.0","e3wk0mnvwk","NaN","<div style=""width:500px;"">
                                <p style=""font-size:50px; font-weight:bold;""
                                ></p>
                                <div style=""width:240px; margin: auto;"">
                                    <img src=""images/D26.png"" style= ""width:200px""alt=""img"">
                                </div>
                            </div>","200","","0","images/D26.png","","","","[""Smooth"",""Rough""]"
"","","","","","html-slider-response","38","137560","0.0-30.0","e3wk0mnvwk","NaN","<div style=""width:500px;"">
                                <p style=""font-size:50px; font-weight:bold;""
                                ></p>
                                <div style=""width:240px; margin: auto;"">
                                    <img src=""images/D53.png"" style= ""width:200px""alt=""img"">
                                </div>
                            </div>","-58","","0","images/D53.png","","","","[""Smooth"",""Rough""]"
"","","","","","html-slider-response","39","140725","0.0-31.0","e3wk0mnvwk","NaN","<div style=""width:500px;"">
                                <p style=""font-size:50px; font-weight:bold;""
                                ></p>
                                <div style=""width:240px; margin: auto;"">
                                    <img src=""images/D66.png"" style= ""width:200px""alt=""img"">
                                </div>
                            </div>","-82","","0","images/D66.png","","","","[""Smooth"",""Rough""]"
"","","","","","html-slider-response","40","144241","0.0-32.0","e3wk0mnvwk","NaN","<div style=""width:500px;"">
                                <p style=""font-size:50px; font-weight:bold;""
                                ></p>
                                <div style=""width:240px; margin: auto;"">
                                    <img src=""images/D6.png"" style= ""width:200px""alt=""img"">
                                </div>
                            </div>","-162","","0","images/D6.png","","","","[""Smooth"",""Rough""]"
"","","","","","html-slider-response","41","145907","0.0-33.0","e3wk0mnvwk","NaN","<div style=""width:500px;"">
                                <p style=""font-size:50px; font-weight:bold;""
                                ></p>
                                <div style=""width:240px; margin: auto;"">
                                    <img src=""images/D3.png"" style= ""width:200px""alt=""img"">
                                </div>
                            </div>","-149","","0","images/D3.png","","","","[""Smooth"",""Rough""]"
"","","","","","html-slider-response","42","148709","0.0-34.0","e3wk0mnvwk","NaN","<div style=""width:500px;"">
                                <p style=""font-size:50px; font-weight:bold;""
                                ></p>
                                <div style=""width:240px; margin: auto;"">
                                    <img src=""images/D35.png"" style= ""width:200px""alt=""img"">
                                </div>
                            </div>","62","","0","images/D35.png","","","","[""Smooth"",""Rough""]"
"","","","","","html-slider-response","43","150721","0.0-35.0","e3wk0mnvwk","NaN","<div style=""width:500px;"">
                                <p style=""font-size:50px; font-weight:bold;""
                                ></p>
                                <div style=""width:240px; margin: auto;"">
                                    <img src=""images/D32.png"" style= ""width:200px""alt=""img"">
                                </div>
                            </div>","-82","","0","images/D32.png","","","","[""Smooth"",""Rough""]"
"","","","","","html-slider-response","44","153676","0.0-36.0","e3wk0mnvwk","NaN","<div style=""width:500px;"">
                                <p style=""font-size:50px; font-weight:bold;""
                                ></p>
                                <div style=""width:240px; margin: auto;"">
                                    <img src=""images/D76.png"" style= ""width:200px""alt=""img"">
                                </div>
                            </div>","42","","0","images/D76.png","","","","[""Smooth"",""Rough""]"
"","","","","","html-slider-response","45","155025","0.0-37.0","e3wk0mnvwk","NaN","<div style=""width:500px;"">
                                <p style=""font-size:50px; font-weight:bold;""
                                ></p>
                                <div style=""width:240px; margin: auto;"">
                                    <img src=""images/D101.png"" style= ""width:200px""alt=""img"">
                                </div>
                            </div>","-75","","0","images/D101.png","","","","[""Smooth"",""Rough""]"
"","","","","","html-slider-response","46","156741","0.0-38.0","e3wk0mnvwk","NaN","<div style=""width:500px;"">
                                <p style=""font-size:50px; font-weight:bold;""
                                ></p>
                                <div style=""width:240px; margin: auto;"">
                                    <img src=""images/D22.png"" style= ""width:200px""alt=""img"">
                                </div>
                            </div>","-60","","0","images/D22.png","","","","[""Smooth"",""Rough""]"
"","","","","","html-slider-response","47","158554","0.0-39.0","e3wk0mnvwk","NaN","<div style=""width:500px;"">
                                <p style=""font-size:50px; font-weight:bold;""
                                ></p>
                                <div style=""width:240px; margin: auto;"">
                                    <img src=""images/D74.png"" style= ""width:200px""alt=""img"">
                                </div>
                            </div>","93","","0","images/D74.png","","","","[""Smooth"",""Rough""]"
"","","","","","html-slider-response","48","167354","0.0-40.0","e3wk0mnvwk","NaN","<div style=""width:500px;"">
                                <p style=""font-size:50px; font-weight:bold;""
                                ></p>
                                <div style=""width:240px; margin: auto;"">
                                    <img src=""images/D77.png"" style= ""width:200px""alt=""img"">
                                </div>
                            </div>","-200","","0","images/D77.png","","","","[""Smooth"",""Rough""]"
"","","","","","html-slider-response","49","169255","0.0-41.0","e3wk0mnvwk","NaN","<div style=""width:500px;"">
                                <p style=""font-size:50px; font-weight:bold;""
                                ></p>
                                <div style=""width:240px; margin: auto;"">
                                    <img src=""images/D52.png"" style= ""width:200px""alt=""img"">
                                </div>
                            </div>","-200","","0","images/D52.png","","","","[""Smooth"",""Rough""]"
"","","","","","html-slider-response","50","171425","0.0-42.0","e3wk0mnvwk","NaN","<div style=""width:500px;"">
                                <p style=""font-size:50px; font-weight:bold;""
                                ></p>
                                <div style=""width:240px; margin: auto;"">
                                    <img src=""images/D68.png"" style= ""width:200px""alt=""img"">
                                </div>
                            </div>","113","","0","images/D68.png","","","","[""Smooth"",""Rough""]"
"","","","","","html-slider-response","51","173008","0.0-43.0","e3wk0mnvwk","NaN","<div style=""width:500px;"">
                                <p style=""font-size:50px; font-weight:bold;""
                                ></p>
                                <div style=""width:240px; margin: auto;"">
                                    <img src=""images/D79.png"" style= ""width:200px""alt=""img"">
                                </div>
                            </div>","135","","0","images/D79.png","","","","[""Smooth"",""Rough""]"
"","","","","","html-slider-response","52","174941","0.0-44.0","e3wk0mnvwk","NaN","<div style=""width:500px;"">
                                <p style=""font-size:50px; font-weight:bold;""
                                ></p>
                                <div style=""width:240px; margin: auto;"">
                                    <img src=""images/D55.png"" style= ""width:200px""alt=""img"">
                                </div>
                            </div>","-76","","0","images/D55.png","","","","[""Smooth"",""Rough""]"
"","","","","","html-slider-response","53","177038","0.0-45.0","e3wk0mnvwk","NaN","<div style=""width:500px;"">
                                <p style=""font-size:50px; font-weight:bold;""
                                ></p>
                                <div style=""width:240px; margin: auto;"">
                                    <img src=""images/D25.png"" style= ""width:200px""alt=""img"">
                                </div>
                            </div>","200","","0","images/D25.png","","","","[""Smooth"",""Rough""]"
"","","","","","html-slider-response","54","180342","0.0-46.0","e3wk0mnvwk","NaN","<div style=""width:500px;"">
                                <p style=""font-size:50px; font-weight:bold;""
                                ></p>
                                <div style=""width:240px; margin: auto;"">
                                    <img src=""images/D78.png"" style= ""width:200px""alt=""img"">
                                </div>
                            </div>","58","","0","images/D78.png","","","","[""Smooth"",""Rough""]"
"","","","","","html-slider-response","55","182475","0.0-47.0","e3wk0mnvwk","NaN","<div style=""width:500px;"">
                                <p style=""font-size:50px; font-weight:bold;""
                                ></p>
                                <div style=""width:240px; margin: auto;"">
                                    <img src=""images/D18.png"" style= ""width:200px""alt=""img"">
                                </div>
                            </div>","110","","0","images/D18.png","","","","[""Smooth"",""Rough""]"
"","","","","","html-slider-response","56","187192","0.0-48.0","e3wk0mnvwk","NaN","<div style=""width:500px;"">
                                <p style=""font-size:50px; font-weight:bold;""
                                ></p>
                                <div style=""width:240px; margin: auto;"">
                                    <img src=""images/D75.png"" style= ""width:200px""alt=""img"">
                                </div>
                            </div>","89","","0","images/D75.png","","","","[""Smooth"",""Rough""]"
"","","","","","html-slider-response","57","190708","0.0-49.0","e3wk0mnvwk","NaN","<div style=""width:500px;"">
                                <p style=""font-size:50px; font-weight:bold;""
                                ></p>
                                <div style=""width:240px; margin: auto;"">
                                    <img src=""images/D81.png"" style= ""width:200px""alt=""img"">
                                </div>
                            </div>","55","","0","images/D81.png","","","","[""Smooth"",""Rough""]"
"","","","","","html-slider-response","58","192408","0.0-50.0","e3wk0mnvwk","NaN","<div style=""width:500px;"">
                                <p style=""font-size:50px; font-weight:bold;""
                                ></p>
                                <div style=""width:240px; margin: auto;"">
                                    <img src=""images/D82.png"" style= ""width:200px""alt=""img"">
                                </div>
                            </div>","-112","","0","images/D82.png","","","","[""Smooth"",""Rough""]"
"","","","","","html-slider-response","59","194125","0.0-51.0","e3wk0mnvwk","NaN","<div style=""width:500px;"">
                                <p style=""font-size:50px; font-weight:bold;""
                                ></p>
                                <div style=""width:240px; margin: auto;"">
                                    <img src=""images/D36.png"" style= ""width:200px""alt=""img"">
                                </div>
                            </div>","-148","","0","images/D36.png","","","","[""Smooth"",""Rough""]"
"","","","","","html-slider-response","60","203125","0.0-52.0","e3wk0mnvwk","NaN","<div style=""width:500px;"">
                                <p style=""font-size:50px; font-weight:bold;""
                                ></p>
                                <div style=""width:240px; margin: auto;"">
                                    <img src=""images/D20.png"" style= ""width:200px""alt=""img"">
                                </div>
                            </div>","-153","","0","images/D20.png","","","","[""Smooth"",""Rough""]"
"","","","","","html-slider-response","61","208658","0.0-53.0","e3wk0mnvwk","NaN","<div style=""width:500px;"">
                                <p style=""font-size:50px; font-weight:bold;""
                                ></p>
                                <div style=""width:240px; margin: auto;"">
                                    <img src=""images/D85.png"" style= ""width:200px""alt=""img"">
                                </div>
                            </div>","-64","","0","images/D85.png","","","","[""Smooth"",""Rough""]"
"","","","","","html-slider-response","62","210587","0.0-54.0","e3wk0mnvwk","NaN","<div style=""width:500px;"">
                                <p style=""font-size:50px; font-weight:bold;""
                                ></p>
                                <div style=""width:240px; margin: auto;"">
                                    <img src=""images/D21.png"" style= ""width:200px""alt=""img"">
                                </div>
                            </div>","-200","","0","images/D21.png","","","","[""Smooth"",""Rough""]"
"","","","","","html-slider-response","63","215792","0.0-55.0","e3wk0mnvwk","NaN","<div style=""width:500px;"">
                                <p style=""font-size:50px; font-weight:bold;""
                                ></p>
                                <div style=""width:240px; margin: auto;"">
                                    <img src=""images/D24.png"" style= ""width:200px""alt=""img"">
                                </div>
                            </div>","67","","0","images/D24.png","","","","[""Smooth"",""Rough""]"
"","","","","","html-slider-response","64","291604","0.0-56.0","e3wk0mnvwk","NaN","<div style=""width:500px;"">
                                <p style=""font-size:50px; font-weight:bold;""
                                ></p>
                                <div style=""width:240px; margin: auto;"">
                                    <img src=""images/D48.png"" style= ""width:200px""alt=""img"">
                                </div>
                            </div>","-106","","0","images/D48.png","","","","[""Smooth"",""Rough""]"
"","","","","","html-slider-response","65","293542","0.0-57.0","e3wk0mnvwk","NaN","<div style=""width:500px;"">
                                <p style=""font-size:50px; font-weight:bold;""
                                ></p>
                                <div style=""width:240px; margin: auto;"">
                                    <img src=""images/D104.png"" style= ""width:200px""alt=""img"">
                                </div>
                            </div>","-155","","0","images/D104.png","","","","[""Smooth"",""Rough""]"
"","","","","","html-slider-response","66","296158","0.0-58.0","e3wk0mnvwk","NaN","<div style=""width:500px;"">
                                <p style=""font-size:50px; font-weight:bold;""
                                ></p>
                                <div style=""width:240px; margin: auto;"">
                                    <img src=""images/D11.png"" style= ""width:200px""alt=""img"">
                                </div>
                            </div>","24","","0","images/D11.png","","","","[""Smooth"",""Rough""]"
"","","","","","html-slider-response","67","298342","0.0-59.0","e3wk0mnvwk","NaN","<div style=""width:500px;"">
                                <p style=""font-size:50px; font-weight:bold;""
                                ></p>
                                <div style=""width:240px; margin: auto;"">
                                    <img src=""images/D47.png"" style= ""width:200px""alt=""img"">
                                </div>
                            </div>","29","","0","images/D47.png","","","","[""Smooth"",""Rough""]"
"","","","","","html-slider-response","68","300259","0.0-60.0","e3wk0mnvwk","NaN","<div style=""width:500px;"">
                                <p style=""font-size:50px; font-weight:bold;""
                                ></p>
                                <div style=""width:240px; margin: auto;"">
                                    <img src=""images/D19.png"" style= ""width:200px""alt=""img"">
                                </div>
                            </div>","32","","0","images/D19.png","","","","[""Smooth"",""Rough""]"
"","","","","","html-slider-response","69","302310","0.0-61.0","e3wk0mnvwk","NaN","<div style=""width:500px;"">
                                <p style=""font-size:50px; font-weight:bold;""
                                ></p>
                                <div style=""width:240px; margin: auto;"">
                                    <img src=""images/D49.png"" style= ""width:200px""alt=""img"">
                                </div>
                            </div>","101","","0","images/D49.png","","","","[""Smooth"",""Rough""]"
"","","","","","html-slider-response","70","306672","0.0-62.0","e3wk0mnvwk","NaN","<div style=""width:500px;"">
                                <p style=""font-size:50px; font-weight:bold;""
                                ></p>
                                <div style=""width:240px; margin: auto;"">
                                    <img src=""images/D92.png"" style= ""width:200px""alt=""img"">
                                </div>
                            </div>","90","","0","images/D92.png","","","","[""Smooth"",""Rough""]"
"","","","","","html-slider-response","71","310175","0.0-63.0","e3wk0mnvwk","NaN","<div style=""width:500px;"">
                                <p style=""font-size:50px; font-weight:bold;""
                                ></p>
                                <div style=""width:240px; margin: auto;"">
                                    <img src=""images/D57.png"" style= ""width:200px""alt=""img"">
                                </div>
                            </div>","32","","0","images/D57.png","","","","[""Smooth"",""Rough""]"
"","","","","","html-slider-response","72","312460","0.0-64.0","e3wk0mnvwk","NaN","<div style=""width:500px;"">
                                <p style=""font-size:50px; font-weight:bold;""
                                ></p>
                                <div style=""width:240px; margin: auto;"">
                                    <img src=""images/D34.png"" style= ""width:200px""alt=""img"">
                                </div>
                            </div>","-102","","0","images/D34.png","","","","[""Smooth"",""Rough""]"
"","","","","","html-slider-response","73","315043","0.0-65.0","e3wk0mnvwk","NaN","<div style=""width:500px;"">
                                <p style=""font-size:50px; font-weight:bold;""
                                ></p>
                                <div style=""width:240px; margin: auto;"">
                                    <img src=""images/D105.png"" style= ""width:200px""alt=""img"">
                                </div>
                            </div>","42","","0","images/D105.png","","","","[""Smooth"",""Rough""]"
"","","","","","html-slider-response","74","321938","0.0-66.0","e3wk0mnvwk","NaN","<div style=""width:500px;"">
                                <p style=""font-size:50px; font-weight:bold;""
                                ></p>
                                <div style=""width:240px; margin: auto;"">
                                    <img src=""images/D1.png"" style= ""width:200px""alt=""img"">
                                </div>
                            </div>","200","","0","images/D1.png","","","","[""Smooth"",""Rough""]"
"","","","","","html-slider-response","75","324643","0.0-67.0","e3wk0mnvwk","NaN","<div style=""width:500px;"">
                                <p style=""font-size:50px; font-weight:bold;""
                                ></p>
                                <div style=""width:240px; margin: auto;"">
                                    <img src=""images/D51.png"" style= ""width:200px""alt=""img"">
                                </div>
                            </div>","93","","0","images/D51.png","","","","[""Smooth"",""Rough""]"
"","","","","","html-slider-response","76","326543","0.0-68.0","e3wk0mnvwk","NaN","<div style=""width:500px;"">
                                <p style=""font-size:50px; font-weight:bold;""
                                ></p>
                                <div style=""width:240px; margin: auto;"">
                                    <img src=""images/D84.png"" style= ""width:200px""alt=""img"">
                                </div>
                            </div>","-40","","0","images/D84.png","","","","[""Smooth"",""Rough""]"
"","","","","","html-slider-response","77","333260","0.0-69.0","e3wk0mnvwk","NaN","<div style=""width:500px;"">
                                <p style=""font-size:50px; font-weight:bold;""
                                ></p>
                                <div style=""width:240px; margin: auto;"">
                                    <img src=""images/D46.png"" style= ""width:200px""alt=""img"">
                                </div>
                            </div>","-106","","0","images/D46.png","","","","[""Smooth"",""Rough""]"
"","","","","","html-slider-response","78","336060","0.0-70.0","e3wk0mnvwk","NaN","<div style=""width:500px;"">
                                <p style=""font-size:50px; font-weight:bold;""
                                ></p>
                                <div style=""width:240px; margin: auto;"">
                                    <img src=""images/D8.png"" style= ""width:200px""alt=""img"">
                                </div>
                            </div>","-62","","0","images/D8.png","","","","[""Smooth"",""Rough""]"
"","","","","","html-slider-response","79","338154","0.0-71.0","e3wk0mnvwk","NaN","<div style=""width:500px;"">
                                <p style=""font-size:50px; font-weight:bold;""
                                ></p>
                                <div style=""width:240px; margin: auto;"">
                                    <img src=""images/D95.png"" style= ""width:200px""alt=""img"">
                                </div>
                            </div>","200","","0","images/D95.png","","","","[""Smooth"",""Rough""]"
"","","","","","html-slider-response","80","343426","0.0-72.0","e3wk0mnvwk","NaN","<div style=""width:500px;"">
                                <p style=""font-size:50px; font-weight:bold;""
                                ></p>
                                <div style=""width:240px; margin: auto;"">
                                    <img src=""images/D83.png"" style= ""width:200px""alt=""img"">
                                </div>
                            </div>","68","","0","images/D83.png","","","","[""Smooth"",""Rough""]"
"","","","","","html-slider-response","81","345377","0.0-73.0","e3wk0mnvwk","NaN","<div style=""width:500px;"">
                                <p style=""font-size:50px; font-weight:bold;""
                                ></p>
                                <div style=""width:240px; margin: auto;"">
                                    <img src=""images/D106.png"" style= ""width:200px""alt=""img"">
                                </div>
                            </div>","110","","0","images/D106.png","","","","[""Smooth"",""Rough""]"
"","","","","","html-slider-response","82","347059","0.0-74.0","e3wk0mnvwk","NaN","<div style=""width:500px;"">
                                <p style=""font-size:50px; font-weight:bold;""
                                ></p>
                                <div style=""width:240px; margin: auto;"">
                                    <img src=""images/D16.png"" style= ""width:200px""alt=""img"">
                                </div>
                            </div>","-108","","0","images/D16.png","","","","[""Smooth"",""Rough""]"
"","","","","","html-slider-response","83","349555","0.0-75.0","e3wk0mnvwk","NaN","<div style=""width:500px;"">
                                <p style=""font-size:50px; font-weight:bold;""
                                ></p>
                                <div style=""width:240px; margin: auto;"">
                                    <img src=""images/D96.png"" style= ""width:200px""alt=""img"">
                                </div>
                            </div>","200","","0","images/D96.png","","","","[""Smooth"",""Rough""]"
"","","","","","html-button-response","84","350909","0.0-76.0","e3wk0mnvwk","853","You have completed the first block of trials out of six. Please click 'Continue' when you are ready proceed.","0","","","","","","",""
"","","","","","html-button-response","85","351626","0.0-77.0","e3wk0mnvwk","714","In the following trials, you will be asked to rate textures on the scale <b>Soft</b> versus <b>Hard</b>. Please click 'Continue' when you are ready proceed.","0","","","","","","",""
"","","","","","html-slider-response","86","357443","0.0-78.0","e3wk0mnvwk","NaN","<div style=""width:500px;"">
                                <p style=""font-size:50px; font-weight:bold;""
                                ></p>
                                <div style=""width:240px; margin: auto;"">
                                    <img src=""images/D65.png"" style= ""width:200px""alt=""img"">
                                </div>
                            </div>","-34","","0","images/D65.png","","","","[""Hard"",""Soft""]"
"","","","","","html-slider-response","87","359360","0.0-79.0","e3wk0mnvwk","NaN","<div style=""width:500px;"">
                                <p style=""font-size:50px; font-weight:bold;""
                                ></p>
                                <div style=""width:240px; margin: auto;"">
                                    <img src=""images/D56.png"" style= ""width:200px""alt=""img"">
                                </div>
                            </div>","-91","","0","images/D56.png","","","","[""Hard"",""Soft""]"
"","","","","","html-slider-response","88","370711","0.0-80.0","e3wk0mnvwk","NaN","<div style=""width:500px;"">
                                <p style=""font-size:50px; font-weight:bold;""
                                ></p>
                                <div style=""width:240px; margin: auto;"">
                                    <img src=""images/D111.png"" style= ""width:200px""alt=""img"">
                                </div>
                            </div>","-38","","0","images/D111.png","","","","[""Hard"",""Soft""]"
"","","","","","html-slider-response","89","373443","0.0-81.0","e3wk0mnvwk","NaN","<div style=""width:500px;"">
                                <p style=""font-size:50px; font-weight:bold;""
                                ></p>
                                <div style=""width:240px; margin: auto;"">
                                    <img src=""images/D9.png"" style= ""width:200px""alt=""img"">
                                </div>
                            </div>","65","","0","images/D9.png","","","","[""Hard"",""Soft""]"
"","","","","","html-slider-response","90","375655","0.0-82.0","e3wk0mnvwk","NaN","<div style=""width:500px;"">
                                <p style=""font-size:50px; font-weight:bold;""
                                ></p>
                                <div style=""width:240px; margin: auto;"">
                                    <img src=""images/D94.png"" style= ""width:200px""alt=""img"">
                                </div>
                            </div>","-200","","0","images/D94.png","","","","[""Hard"",""Soft""]"
"","","","","","html-slider-response","91","377560","0.0-83.0","e3wk0mnvwk","NaN","<div style=""width:500px;"">
                                <p style=""font-size:50px; font-weight:bold;""
                                ></p>
                                <div style=""width:240px; margin: auto;"">
                                    <img src=""images/D103.png"" style= ""width:200px""alt=""img"">
                                </div>
                            </div>","157","","0","images/D103.png","","","","[""Hard"",""Soft""]"
"","","","","","html-slider-response","92","381026","0.0-84.0","e3wk0mnvwk","NaN","<div style=""width:500px;"">
                                <p style=""font-size:50px; font-weight:bold;""
                                ></p>
                                <div style=""width:240px; margin: auto;"">
                                    <img src=""images/D17.png"" style= ""width:200px""alt=""img"">
                                </div>
                            </div>","199","","0","images/D17.png","","","","[""Hard"",""Soft""]"
"","","","","","html-slider-response","93","401577","0.0-85.0","e3wk0mnvwk","NaN","<div style=""width:500px;"">
                                <p style=""font-size:50px; font-weight:bold;""
                                ></p>
                                <div style=""width:240px; margin: auto;"">
                                    <img src=""images/D37.png"" style= ""width:200px""alt=""img"">
                                </div>
                            </div>","-95","","0","images/D37.png","","","","[""Hard"",""Soft""]"
"","","","","","html-slider-response","94","421627","0.0-86.0","e3wk0mnvwk","NaN","<div style=""width:500px;"">
                                <p style=""font-size:50px; font-weight:bold;""
                                ></p>
                                <div style=""width:240px; margin: auto;"">
                                    <img src=""images/D29.png"" style= ""width:200px""alt=""img"">
                                </div>
                            </div>","58","","0","images/D29.png","","","","[""Hard"",""Soft""]"
"","","","","","html-slider-response","95","423544","0.0-87.0","e3wk0mnvwk","NaN","<div style=""width:500px;"">
                                <p style=""font-size:50px; font-weight:bold;""
                                ></p>
                                <div style=""width:240px; margin: auto;"">
                                    <img src=""images/D4.png"" style= ""width:200px""alt=""img"">
                                </div>
                            </div>","98","","0","images/D4.png","","","","[""Hard"",""Soft""]"
"","","","","","html-slider-response","96","426643","0.0-88.0","e3wk0mnvwk","NaN","<div style=""width:500px;"">
                                <p style=""font-size:50px; font-weight:bold;""
                                ></p>
                                <div style=""width:240px; margin: auto;"">
                                    <img src=""images/D64.png"" style= ""width:200px""alt=""img"">
                                </div>
                            </div>","-86","","0","images/D64.png","","","","[""Hard"",""Soft""]"
"","","","","","html-slider-response","97","433794","0.0-89.0","e3wk0mnvwk","NaN","<div style=""width:500px;"">
                                <p style=""font-size:50px; font-weight:bold;""
                                ></p>
                                <div style=""width:240px; margin: auto;"">
                                    <img src=""images/D80.png"" style= ""width:200px""alt=""img"">
                                </div>
                            </div>","65","","0","images/D80.png","","","","[""Hard"",""Soft""]"
"","","","","","html-slider-response","98","435873","0.0-90.0","e3wk0mnvwk","NaN","<div style=""width:500px;"">
                                <p style=""font-size:50px; font-weight:bold;""
                                ></p>
                                <div style=""width:240px; margin: auto;"">
                                    <img src=""images/D14.png"" style= ""width:200px""alt=""img"">
                                </div>
                            </div>","200","","0","images/D14.png","","","","[""Hard"",""Soft""]"
"","","","","","html-slider-response","99","437861","0.0-91.0","e3wk0mnvwk","NaN","<div style=""width:500px;"">
                                <p style=""font-size:50px; font-weight:bold;""
                                ></p>
                                <div style=""width:240px; margin: auto;"">
                                    <img src=""images/D102.png"" style= ""width:200px""alt=""img"">
                                </div>
                            </div>","125","","0","images/D102.png","","","","[""Hard"",""Soft""]"
"","","","","","html-slider-response","100","440877","0.0-92.0","e3wk0mnvwk","NaN","<div style=""width:500px;"">
                                <p style=""font-size:50px; font-weight:bold;""
                                ></p>
                                <div style=""width:240px; margin: auto;"">
                                    <img src=""images/D87.png"" style= ""width:200px""alt=""img"">
                                </div>
                            </div>","70","","0","images/D87.png","","","","[""Hard"",""Soft""]"
"","","","","","html-slider-response","101","443174","0.0-93.0","e3wk0mnvwk","NaN","<div style=""width:500px;"">
                                <p style=""font-size:50px; font-weight:bold;""
                                ></p>
                                <div style=""width:240px; margin: auto;"">
                                    <img src=""images/D26.png"" style= ""width:200px""alt=""img"">
                                </div>
                            </div>","-200","","0","images/D26.png","","","","[""Hard"",""Soft""]"
"","","","","","html-slider-response","102","445123","0.0-94.0","e3wk0mnvwk","NaN","<div style=""width:500px;"">
                                <p style=""font-size:50px; font-weight:bold;""
                                ></p>
                                <div style=""width:240px; margin: auto;"">
                                    <img src=""images/D53.png"" style= ""width:200px""alt=""img"">
                                </div>
                            </div>","200","","0","images/D53.png","","","","[""Hard"",""Soft""]"
"","","","","","html-slider-response","103","448476","0.0-95.0","e3wk0mnvwk","NaN","<div style=""width:500px;"">
                                <p style=""font-size:50px; font-weight:bold;""
                                ></p>
                                <div style=""width:240px; margin: auto;"">
                                    <img src=""images/D66.png"" style= ""width:200px""alt=""img"">
                                </div>
                            </div>","55","","0","images/D66.png","","","","[""Hard"",""Soft""]"
"","","","","","html-slider-response","104","450326","0.0-96.0","e3wk0mnvwk","NaN","<div style=""width:500px;"">
                                <p style=""font-size:50px; font-weight:bold;""
                                ></p>
                                <div style=""width:240px; margin: auto;"">
                                    <img src=""images/D6.png"" style= ""width:200px""alt=""img"">
                                </div>
                            </div>","174","","0","images/D6.png","","","","[""Hard"",""Soft""]"
"","","","","","html-slider-response","105","460111","0.0-97.0","e3wk0mnvwk","NaN","<div style=""width:500px;"">
                                <p style=""font-size:50px; font-weight:bold;""
                                ></p>
                                <div style=""width:240px; margin: auto;"">
                                    <img src=""images/D3.png"" style= ""width:200px""alt=""img"">
                                </div>
                            </div>","106","","0","images/D3.png","","","","[""Hard"",""Soft""]"
"","","","","","html-slider-response","106","465760","0.0-98.0","e3wk0mnvwk","NaN","<div style=""width:500px;"">
                                <p style=""font-size:50px; font-weight:bold;""
                                ></p>
                                <div style=""width:240px; margin: auto;"">
                                    <img src=""images/D35.png"" style= ""width:200px""alt=""img"">
                                </div>
                            </div>","83","","0","images/D35.png","","","","[""Hard"",""Soft""]"
"","","","","","html-slider-response","107","469711","0.0-99.0","e3wk0mnvwk","NaN","<div style=""width:500px;"">
                                <p style=""font-size:50px; font-weight:bold;""
                                ></p>
                                <div style=""width:240px; margin: auto;"">
                                    <img src=""images/D32.png"" style= ""width:200px""alt=""img"">
                                </div>
                            </div>","-89","","0","images/D32.png","","","","[""Hard"",""Soft""]"
"","","","","","html-slider-response","108","471928","0.0-100.0","e3wk0mnvwk","NaN","<div style=""width:500px;"">
                                <p style=""font-size:50px; font-weight:bold;""
                                ></p>
                                <div style=""width:240px; margin: auto;"">
                                    <img src=""images/D76.png"" style= ""width:200px""alt=""img"">
                                </div>
                            </div>","-118","","0","images/D76.png","","","","[""Hard"",""Soft""]"
"","","","","","html-slider-response","109","473144","0.0-101.0","e3wk0mnvwk","NaN","<div style=""width:500px;"">
                                <p style=""font-size:50px; font-weight:bold;""
                                ></p>
                                <div style=""width:240px; margin: auto;"">
                                    <img src=""images/D101.png"" style= ""width:200px""alt=""img"">
                                </div>
                            </div>","118","","0","images/D101.png","","","","[""Hard"",""Soft""]"
"","","","","","html-slider-response","110","474461","0.0-102.0","e3wk0mnvwk","NaN","<div style=""width:500px;"">
                                <p style=""font-size:50px; font-weight:bold;""
                                ></p>
                                <div style=""width:240px; margin: auto;"">
                                    <img src=""images/D22.png"" style= ""width:200px""alt=""img"">
                                </div>
                            </div>","99","","0","images/D22.png","","","","[""Hard"",""Soft""]"
"","","","","","html-slider-response","111","475940","0.0-103.0","e3wk0mnvwk","NaN","<div style=""width:500px;"">
                                <p style=""font-size:50px; font-weight:bold;""
                                ></p>
                                <div style=""width:240px; margin: auto;"">
                                    <img src=""images/D74.png"" style= ""width:200px""alt=""img"">
                                </div>
                            </div>","-80","","0","images/D74.png","","","","[""Hard"",""Soft""]"
"","","","","","html-slider-response","112","477211","0.0-104.0","e3wk0mnvwk","NaN","<div style=""width:500px;"">
                                <p style=""font-size:50px; font-weight:bold;""
                                ></p>
                                <div style=""width:240px; margin: auto;"">
                                    <img src=""images/D77.png"" style= ""width:200px""alt=""img"">
                                </div>
                            </div>","139","","0","images/D77.png","","","","[""Hard"",""Soft""]"
"","","","","","html-slider-response","113","478943","0.0-105.0","e3wk0mnvwk","NaN","<div style=""width:500px;"">
                                <p style=""font-size:50px; font-weight:bold;""
                                ></p>
                                <div style=""width:240px; margin: auto;"">
                                    <img src=""images/D52.png"" style= ""width:200px""alt=""img"">
                                </div>
                            </div>","108","","0","images/D52.png","","","","[""Hard"",""Soft""]"
"","","","","","html-slider-response","114","480694","0.0-106.0","e3wk0mnvwk","NaN","<div style=""width:500px;"">
                                <p style=""font-size:50px; font-weight:bold;""
                                ></p>
                                <div style=""width:240px; margin: auto;"">
                                    <img src=""images/D68.png"" style= ""width:200px""alt=""img"">
                                </div>
                            </div>","-50","","0","images/D68.png","","","","[""Hard"",""Soft""]"
"","","","","","html-slider-response","115","482277","0.0-107.0","e3wk0mnvwk","NaN","<div style=""width:500px;"">
                                <p style=""font-size:50px; font-weight:bold;""
                                ></p>
                                <div style=""width:240px; margin: auto;"">
                                    <img src=""images/D79.png"" style= ""width:200px""alt=""img"">
                                </div>
                            </div>","-92","","0","images/D79.png","","","","[""Hard"",""Soft""]"
"","","","","","html-slider-response","116","483673","0.0-108.0","e3wk0mnvwk","NaN","<div style=""width:500px;"">
                                <p style=""font-size:50px; font-weight:bold;""
                                ></p>
                                <div style=""width:240px; margin: auto;"">
                                    <img src=""images/D55.png"" style= ""width:200px""alt=""img"">
                                </div>
                            </div>","110","","0","images/D55.png","","","","[""Hard"",""Soft""]"
"","","","","","html-slider-response","117","485794","0.0-109.0","e3wk0mnvwk","NaN","<div style=""width:500px;"">
                                <p style=""font-size:50px; font-weight:bold;""
                                ></p>
                                <div style=""width:240px; margin: auto;"">
                                    <img src=""images/D25.png"" style= ""width:200px""alt=""img"">
                                </div>
                            </div>","-198","","0","images/D25.png","","","","[""Hard"",""Soft""]"
"","","","","","html-slider-response","118","487610","0.0-110.0","e3wk0mnvwk","NaN","<div style=""width:500px;"">
                                <p style=""font-size:50px; font-weight:bold;""
                                ></p>
                                <div style=""width:240px; margin: auto;"">
                                    <img src=""images/D78.png"" style= ""width:200px""alt=""img"">
                                </div>
                            </div>","-63","","0","images/D78.png","","","","[""Hard"",""Soft""]"
"","","","","","html-slider-response","119","489511","0.0-111.0","e3wk0mnvwk","NaN","<div style=""width:500px;"">
                                <p style=""font-size:50px; font-weight:bold;""
                                ></p>
                                <div style=""width:240px; margin: auto;"">
                                    <img src=""images/D18.png"" style= ""width:200px""alt=""img"">
                                </div>
                            </div>","-36","","0","images/D18.png","","","","[""Hard"",""Soft""]"
"","","","","","html-slider-response","120","491528","0.0-112.0","e3wk0mnvwk","NaN","<div style=""width:500px;"">
                                <p style=""font-size:50px; font-weight:bold;""
                                ></p>
                                <div style=""width:240px; margin: auto;"">
                                    <img src=""images/D75.png"" style= ""width:200px""alt=""img"">
                                </div>
                            </div>","-89","","0","images/D75.png","","","","[""Hard"",""Soft""]"
"","","","","","html-slider-response","121","492943","0.0-113.0","e3wk0mnvwk","NaN","<div style=""width:500px;"">
                                <p style=""font-size:50px; font-weight:bold;""
                                ></p>
                                <div style=""width:240px; margin: auto;"">
                                    <img src=""images/D81.png"" style= ""width:200px""alt=""img"">
                                </div>
                            </div>","98","","0","images/D81.png","","","","[""Hard"",""Soft""]"
"","","","","","html-slider-response","122","494839","0.0-114.0","e3wk0mnvwk","NaN","<div style=""width:500px;"">
                                <p style=""font-size:50px; font-weight:bold;""
                                ></p>
                                <div style=""width:240px; margin: auto;"">
                                    <img src=""images/D82.png"" style= ""width:200px""alt=""img"">
                                </div>
                            </div>","124","","0","images/D82.png","","","","[""Hard"",""Soft""]"
"","","","","","html-slider-response","123","496178","0.0-115.0","e3wk0mnvwk","NaN","<div style=""width:500px;"">
                                <p style=""font-size:50px; font-weight:bold;""
                                ></p>
                                <div style=""width:240px; margin: auto;"">
                                    <img src=""images/D36.png"" style= ""width:200px""alt=""img"">
                                </div>
                            </div>","149","","0","images/D36.png","","","","[""Hard"",""Soft""]"
"","","","","","html-slider-response","124","497411","0.0-116.0","e3wk0mnvwk","NaN","<div style=""width:500px;"">
                                <p style=""font-size:50px; font-weight:bold;""
                                ></p>
                                <div style=""width:240px; margin: auto;"">
                                    <img src=""images/D20.png"" style= ""width:200px""alt=""img"">
                                </div>
                            </div>","149","","0","images/D20.png","","","","[""Hard"",""Soft""]"
"","","","","","html-slider-response","125","499527","0.0-117.0","e3wk0mnvwk","NaN","<div style=""width:500px;"">
                                <p style=""font-size:50px; font-weight:bold;""
                                ></p>
                                <div style=""width:240px; margin: auto;"">
                                    <img src=""images/D85.png"" style= ""width:200px""alt=""img"">
                                </div>
                            </div>","-97","","0","images/D85.png","","","","[""Hard"",""Soft""]"
"","","","","","html-slider-response","126","502072","0.0-118.0","e3wk0mnvwk","NaN","<div style=""width:500px;"">
                                <p style=""font-size:50px; font-weight:bold;""
                                ></p>
                                <div style=""width:240px; margin: auto;"">
                                    <img src=""images/D21.png"" style= ""width:200px""alt=""img"">
                                </div>
                            </div>","200","","0","images/D21.png","","","","[""Hard"",""Soft""]"
"","","","","","html-slider-response","127","505345","0.0-119.0","e3wk0mnvwk","NaN","<div style=""width:500px;"">
                                <p style=""font-size:50px; font-weight:bold;""
                                ></p>
                                <div style=""width:240px; margin: auto;"">
                                    <img src=""images/D24.png"" style= ""width:200px""alt=""img"">
                                </div>
                            </div>","-156","","0","images/D24.png","","","","[""Hard"",""Soft""]"
"","","","","","html-slider-response","128","535129","0.0-120.0","e3wk0mnvwk","NaN","<div style=""width:500px;"">
                                <p style=""font-size:50px; font-weight:bold;""
                                ></p>
                                <div style=""width:240px; margin: auto;"">
                                    <img src=""images/D48.png"" style= ""width:200px""alt=""img"">
                                </div>
                            </div>","-82","","0","images/D48.png","","","","[""Hard"",""Soft""]"
"","","","","","html-slider-response","129","537190","0.0-121.0","e3wk0mnvwk","NaN","<div style=""width:500px;"">
                                <p style=""font-size:50px; font-weight:bold;""
                                ></p>
                                <div style=""width:240px; margin: auto;"">
                                    <img src=""images/D104.png"" style= ""width:200px""alt=""img"">
                                </div>
                            </div>","200","","0","images/D104.png","","","","[""Hard"",""Soft""]"
"","","","","","html-slider-response","130","545878","0.0-122.0","e3wk0mnvwk","NaN","<div style=""width:500px;"">
                                <p style=""font-size:50px; font-weight:bold;""
                                ></p>
                                <div style=""width:240px; margin: auto;"">
                                    <img src=""images/D11.png"" style= ""width:200px""alt=""img"">
                                </div>
                            </div>","-86","","0","images/D11.png","","","","[""Hard"",""Soft""]"
"","","","","","html-slider-response","131","548061","0.0-123.0","e3wk0mnvwk","NaN","<div style=""width:500px;"">
                                <p style=""font-size:50px; font-weight:bold;""
                                ></p>
                                <div style=""width:240px; margin: auto;"">
                                    <img src=""images/D47.png"" style= ""width:200px""alt=""img"">
                                </div>
                            </div>","100","","0","images/D47.png","","","","[""Hard"",""Soft""]"
"","","","","","html-slider-response","132","550445","0.0-124.0","e3wk0mnvwk","NaN","<div style=""width:500px;"">
                                <p style=""font-size:50px; font-weight:bold;""
                                ></p>
                                <div style=""width:240px; margin: auto;"">
                                    <img src=""images/D19.png"" style= ""width:200px""alt=""img"">
                                </div>
                            </div>","-69","","0","images/D19.png","","","","[""Hard"",""Soft""]"
"","","","","","html-slider-response","133","552178","0.0-125.0","e3wk0mnvwk","NaN","<div style=""width:500px;"">
                                <p style=""font-size:50px; font-weight:bold;""
                                ></p>
                                <div style=""width:240px; margin: auto;"">
                                    <img src=""images/D49.png"" style= ""width:200px""alt=""img"">
                                </div>
                            </div>","-142","","0","images/D49.png","","","","[""Hard"",""Soft""]"
"","","","","","html-slider-response","134","557395","0.0-126.0","e3wk0mnvwk","NaN","<div style=""width:500px;"">
                                <p style=""font-size:50px; font-weight:bold;""
                                ></p>
                                <div style=""width:240px; margin: auto;"">
                                    <img src=""images/D92.png"" style= ""width:200px""alt=""img"">
                                </div>
                            </div>","70","","0","images/D92.png","","","","[""Hard"",""Soft""]"
"","","","","","html-slider-response","135","559857","0.0-127.0","e3wk0mnvwk","NaN","<div style=""width:500px;"">
                                <p style=""font-size:50px; font-weight:bold;""
                                ></p>
                                <div style=""width:240px; margin: auto;"">
                                    <img src=""images/D57.png"" style= ""width:200px""alt=""img"">
                                </div>
                            </div>","98","","0","images/D57.png","","","","[""Hard"",""Soft""]"
"","","","","","html-slider-response","136","561694","0.0-128.0","e3wk0mnvwk","NaN","<div style=""width:500px;"">
                                <p style=""font-size:50px; font-weight:bold;""
                                ></p>
                                <div style=""width:240px; margin: auto;"">
                                    <img src=""images/D34.png"" style= ""width:200px""alt=""img"">
                                </div>
                            </div>","161","","0","images/D34.png","","","","[""Hard"",""Soft""]"
"","","","","","html-slider-response","137","567479","0.0-129.0","e3wk0mnvwk","NaN","<div style=""width:500px;"">
                                <p style=""font-size:50px; font-weight:bold;""
                                ></p>
                                <div style=""width:240px; margin: auto;"">
                                    <img src=""images/D105.png"" style= ""width:200px""alt=""img"">
                                </div>
                            </div>","-124","","0","images/D105.png","","","","[""Hard"",""Soft""]"
"","","","","","html-slider-response","138","569923","0.0-130.0","e3wk0mnvwk","NaN","<div style=""width:500px;"">
                                <p style=""font-size:50px; font-weight:bold;""
                                ></p>
                                <div style=""width:240px; margin: auto;"">
                                    <img src=""images/D1.png"" style= ""width:200px""alt=""img"">
                                </div>
                            </div>","-200","","0","images/D1.png","","","","[""Hard"",""Soft""]"
"","","","","","html-slider-response","139","572912","0.0-131.0","e3wk0mnvwk","NaN","<div style=""width:500px;"">
                                <p style=""font-size:50px; font-weight:bold;""
                                ></p>
                                <div style=""width:240px; margin: auto;"">
                                    <img src=""images/D51.png"" style= ""width:200px""alt=""img"">
                                </div>
                            </div>","-146","","0","images/D51.png","","","","[""Hard"",""Soft""]"
"","","","","","html-slider-response","140","574778","0.0-132.0","e3wk0mnvwk","NaN","<div style=""width:500px;"">
                                <p style=""font-size:50px; font-weight:bold;""
                                ></p>
                                <div style=""width:240px; margin: auto;"">
                                    <img src=""images/D84.png"" style= ""width:200px""alt=""img"">
                                </div>
                            </div>","109","","0","images/D84.png","","","","[""Hard"",""Soft""]"
"","","","","","html-slider-response","141","577691","0.0-133.0","e3wk0mnvwk","NaN","<div style=""width:500px;"">
                                <p style=""font-size:50px; font-weight:bold;""
                                ></p>
                                <div style=""width:240px; margin: auto;"">
                                    <img src=""images/D46.png"" style= ""width:200px""alt=""img"">
                                </div>
                            </div>","125","","0","images/D46.png","","","","[""Hard"",""Soft""]"
"","","","","","html-slider-response","142","580511","0.0-134.0","e3wk0mnvwk","NaN","<div style=""width:500px;"">
                                <p style=""font-size:50px; font-weight:bold;""
                                ></p>
                                <div style=""width:240px; margin: auto;"">
                                    <img src=""images/D8.png"" style= ""width:200px""alt=""img"">
                                </div>
                            </div>","45","","0","images/D8.png","","","","[""Hard"",""Soft""]"
"","","","","","html-slider-response","143","582855","0.0-135.0","e3wk0mnvwk","NaN","<div style=""width:500px;"">
                                <p style=""font-size:50px; font-weight:bold;""
                                ></p>
                                <div style=""width:240px; margin: auto;"">
                                    <img src=""images/D95.png"" style= ""width:200px""alt=""img"">
                                </div>
                            </div>","-200","","0","images/D95.png","","","","[""Hard"",""Soft""]"
"","","","","","html-slider-response","144","598296","0.0-136.0","e3wk0mnvwk","NaN","<div style=""width:500px;"">
                                <p style=""font-size:50px; font-weight:bold;""
                                ></p>
                                <div style=""width:240px; margin: auto;"">
                                    <img src=""images/D83.png"" style= ""width:200px""alt=""img"">
                                </div>
                            </div>","99","","0","images/D83.png","","","","[""Hard"",""Soft""]"
"","","","","","html-slider-response","145","600012","0.0-137.0","e3wk0mnvwk","NaN","<div style=""width:500px;"">
                                <p style=""font-size:50px; font-weight:bold;""
                                ></p>
                                <div style=""width:240px; margin: auto;"">
                                    <img src=""images/D106.png"" style= ""width:200px""alt=""img"">
                                </div>
                            </div>","-76","","0","images/D106.png","","","","[""Hard"",""Soft""]"
"","","","","","html-slider-response","146","602458","0.0-138.0","e3wk0mnvwk","NaN","<div style=""width:500px;"">
                                <p style=""font-size:50px; font-weight:bold;""
                                ></p>
                                <div style=""width:240px; margin: auto;"">
                                    <img src=""images/D16.png"" style= ""width:200px""alt=""img"">
                                </div>
                            </div>","135","","0","images/D16.png","","","","[""Hard"",""Soft""]"
"","","","","","html-slider-response","147","604458","0.0-139.0","e3wk0mnvwk","NaN","<div style=""width:500px;"">
                                <p style=""font-size:50px; font-weight:bold;""
                                ></p>
                                <div style=""width:240px; margin: auto;"">
                                    <img src=""images/D96.png"" style= ""width:200px""alt=""img"">
                                </div>
                            </div>","-200","","0","images/D96.png","","","","[""Hard"",""Soft""]"
"","","","","","html-button-response","148","606194","0.0-140.0","e3wk0mnvwk","1230","You have completed the second block of trials out of six. Please click 'Continue' when you are ready proceed.","0","","","","","","",""
"","","","","","html-button-response","149","610462","0.0-141.0","e3wk0mnvwk","4265","In the following trials, you will be asked to rate textures on the scale <b>Stripey</b> versus <b>Blobby</b>. Please click 'Continue' when you are ready proceed.","0","","","","","","",""
"","","","","","html-slider-response","150","612062","0.0-142.0","e3wk0mnvwk","NaN","<div style=""width:500px;"">
                                <p style=""font-size:50px; font-weight:bold;""
                                ></p>
                                <div style=""width:240px; margin: auto;"">
                                    <img src=""images/D24.png"" style= ""width:200px""alt=""img"">
                                </div>
                            </div>","133","","0","images/D24.png","","","","[""Stripey"",""Blobby""]"
"","","","","","html-slider-response","151","614358","0.0-143.0","e3wk0mnvwk","NaN","<div style=""width:500px;"">
                                <p style=""font-size:50px; font-weight:bold;""
                                ></p>
                                <div style=""width:240px; margin: auto;"">
                                    <img src=""images/D79.png"" style= ""width:200px""alt=""img"">
                                </div>
                            </div>","-200","","0","images/D79.png","","","","[""Stripey"",""Blobby""]"
"","","","","","html-slider-response","152","616256","0.0-144.0","e3wk0mnvwk","NaN","<div style=""width:500px;"">
                                <p style=""font-size:50px; font-weight:bold;""
                                ></p>
                                <div style=""width:240px; margin: auto;"">
                                    <img src=""images/D22.png"" style= ""width:200px""alt=""img"">
                                </div>
                            </div>","200","","0","images/D22.png","","","","[""Stripey"",""Blobby""]"
"","","","","","html-slider-response","153","618513","0.0-145.0","e3wk0mnvwk","NaN","<div style=""width:500px;"">
                                <p style=""font-size:50px; font-weight:bold;""
                                ></p>
                                <div style=""width:240px; margin: auto;"">
                                    <img src=""images/D21.png"" style= ""width:200px""alt=""img"">
                                </div>
                            </div>","79","","0","images/D21.png","","","","[""Stripey"",""Blobby""]"
"","","","","","html-slider-response","154","620956","0.0-146.0","e3wk0mnvwk","NaN","<div style=""width:500px;"">
                                <p style=""font-size:50px; font-weight:bold;""
                                ></p>
                                <div style=""width:240px; margin: auto;"">
                                    <img src=""images/D55.png"" style= ""width:200px""alt=""img"">
                                </div>
                            </div>","112","","0","images/D55.png","","","","[""Stripey"",""Blobby""]"
"","","","","","html-slider-response","155","623078","0.0-147.0","e3wk0mnvwk","NaN","<div style=""width:500px;"">
                                <p style=""font-size:50px; font-weight:bold;""
                                ></p>
                                <div style=""width:240px; margin: auto;"">
                                    <img src=""images/D18.png"" style= ""width:200px""alt=""img"">
                                </div>
                            </div>","-99","","0","images/D18.png","","","","[""Stripey"",""Blobby""]"
"","","","","","html-slider-response","156","625040","0.0-148.0","e3wk0mnvwk","NaN","<div style=""width:500px;"">
                                <p style=""font-size:50px; font-weight:bold;""
                                ></p>
                                <div style=""width:240px; margin: auto;"">
                                    <img src=""images/D66.png"" style= ""width:200px""alt=""img"">
                                </div>
                            </div>","200","","0","images/D66.png","","","","[""Stripey"",""Blobby""]"
"","","","","","html-slider-response","157","628229","0.0-149.0","e3wk0mnvwk","NaN","<div style=""width:500px;"">
                                <p style=""font-size:50px; font-weight:bold;""
                                ></p>
                                <div style=""width:240px; margin: auto;"">
                                    <img src=""images/D74.png"" style= ""width:200px""alt=""img"">
                                </div>
                            </div>","2","","0","images/D74.png","","","","[""Stripey"",""Blobby""]"
"","","","","","html-slider-response","158","630679","0.0-150.0","e3wk0mnvwk","NaN","<div style=""width:500px;"">
                                <p style=""font-size:50px; font-weight:bold;""
                                ></p>
                                <div style=""width:240px; margin: auto;"">
                                    <img src=""images/D81.png"" style= ""width:200px""alt=""img"">
                                </div>
                            </div>","30","","0","images/D81.png","","","","[""Stripey"",""Blobby""]"
"","","","","","html-slider-response","159","637695","0.0-151.0","e3wk0mnvwk","NaN","<div style=""width:500px;"">
                                <p style=""font-size:50px; font-weight:bold;""
                                ></p>
                                <div style=""width:240px; margin: auto;"">
                                    <img src=""images/D52.png"" style= ""width:200px""alt=""img"">
                                </div>
                            </div>","63","","0","images/D52.png","","","","[""Stripey"",""Blobby""]"
"","","","","","html-slider-response","160","639695","0.0-152.0","e3wk0mnvwk","NaN","<div style=""width:500px;"">
                                <p style=""font-size:50px; font-weight:bold;""
                                ></p>
                                <div style=""width:240px; margin: auto;"">
                                    <img src=""images/D48.png"" style= ""width:200px""alt=""img"">
                                </div>
                            </div>","-147","","0","images/D48.png","","","","[""Stripey"",""Blobby""]"
"","","","","","html-slider-response","161","641313","0.0-153.0","e3wk0mnvwk","NaN","<div style=""width:500px;"">
                                <p style=""font-size:50px; font-weight:bold;""
                                ></p>
                                <div style=""width:240px; margin: auto;"">
                                    <img src=""images/D92.png"" style= ""width:200px""alt=""img"">
                                </div>
                            </div>","-60","","0","images/D92.png","","","","[""Stripey"",""Blobby""]"
"","","","","","html-slider-response","162","644696","0.0-154.0","e3wk0mnvwk","NaN","<div style=""width:500px;"">
                                <p style=""font-size:50px; font-weight:bold;""
                                ></p>
                                <div style=""width:240px; margin: auto;"">
                                    <img src=""images/D6.png"" style= ""width:200px""alt=""img"">
                                </div>
                            </div>","82","","0","images/D6.png","","","","[""Stripey"",""Blobby""]"
"","","","","","html-slider-response","163","647529","0.0-155.0","e3wk0mnvwk","NaN","<div style=""width:500px;"">
                                <p style=""font-size:50px; font-weight:bold;""
                                ></p>
                                <div style=""width:240px; margin: auto;"">
                                    <img src=""images/D76.png"" style= ""width:200px""alt=""img"">
                                </div>
                            </div>","-104","","0","images/D76.png","","","","[""Stripey"",""Blobby""]"
"","","","","","html-slider-response","164","649512","0.0-156.0","e3wk0mnvwk","NaN","<div style=""width:500px;"">
                                <p style=""font-size:50px; font-weight:bold;""
                                ></p>
                                <div style=""width:240px; margin: auto;"">
                                    <img src=""images/D94.png"" style= ""width:200px""alt=""img"">
                                </div>
                            </div>","-128","","0","images/D94.png","","","","[""Stripey"",""Blobby""]"
"","","","","","html-slider-response","165","652129","0.0-157.0","e3wk0mnvwk","NaN","<div style=""width:500px;"">
                                <p style=""font-size:50px; font-weight:bold;""
                                ></p>
                                <div style=""width:240px; margin: auto;"">
                                    <img src=""images/D17.png"" style= ""width:200px""alt=""img"">
                                </div>
                            </div>","66","","0","images/D17.png","","","","[""Stripey"",""Blobby""]"
"","","","","","html-slider-response","166","653896","0.0-158.0","e3wk0mnvwk","NaN","<div style=""width:500px;"">
                                <p style=""font-size:50px; font-weight:bold;""
                                ></p>
                                <div style=""width:240px; margin: auto;"">
                                    <img src=""images/D9.png"" style= ""width:200px""alt=""img"">
                                </div>
                            </div>","-31","","0","images/D9.png","","","","[""Stripey"",""Blobby""]"
"","","","","","html-slider-response","167","656876","0.0-159.0","e3wk0mnvwk","NaN","<div style=""width:500px;"">
                                <p style=""font-size:50px; font-weight:bold;""
                                ></p>
                                <div style=""width:240px; margin: auto;"">
                                    <img src=""images/D20.png"" style= ""width:200px""alt=""img"">
                                </div>
                            </div>","-200","","0","images/D20.png","","","","[""Stripey"",""Blobby""]"
"","","","","","html-slider-response","168","665346","0.0-160.0","e3wk0mnvwk","NaN","<div style=""width:500px;"">
                                <p style=""font-size:50px; font-weight:bold;""
                                ></p>
                                <div style=""width:240px; margin: auto;"">
                                    <img src=""images/D37.png"" style= ""width:200px""alt=""img"">
                                </div>
                            </div>","-38","","0","images/D37.png","","","","[""Stripey"",""Blobby""]"
"","","","","","html-slider-response","169","667246","0.0-161.0","e3wk0mnvwk","NaN","<div style=""width:500px;"">
                                <p style=""font-size:50px; font-weight:bold;""
                                ></p>
                                <div style=""width:240px; margin: auto;"">
                                    <img src=""images/D3.png"" style= ""width:200px""alt=""img"">
                                </div>
                            </div>","72","","0","images/D3.png","","","","[""Stripey"",""Blobby""]"
"","","","","","html-slider-response","170","670796","0.0-162.0","e3wk0mnvwk","NaN","<div style=""width:500px;"">
                                <p style=""font-size:50px; font-weight:bold;""
                                ></p>
                                <div style=""width:240px; margin: auto;"">
                                    <img src=""images/D80.png"" style= ""width:200px""alt=""img"">
                                </div>
                            </div>","37","","0","images/D80.png","","","","[""Stripey"",""Blobby""]"
"","","","","","html-slider-response","171","678947","0.0-163.0","e3wk0mnvwk","NaN","<div style=""width:500px;"">
                                <p style=""font-size:50px; font-weight:bold;""
                                ></p>
                                <div style=""width:240px; margin: auto;"">
                                    <img src=""images/D104.png"" style= ""width:200px""alt=""img"">
                                </div>
                            </div>","25","","0","images/D104.png","","","","[""Stripey"",""Blobby""]"
"","","","","","html-slider-response","172","680957","0.0-164.0","e3wk0mnvwk","NaN","<div style=""width:500px;"">
                                <p style=""font-size:50px; font-weight:bold;""
                                ></p>
                                <div style=""width:240px; margin: auto;"">
                                    <img src=""images/D75.png"" style= ""width:200px""alt=""img"">
                                </div>
                            </div>","185","","0","images/D75.png","","","","[""Stripey"",""Blobby""]"
"","","","","","html-slider-response","173","683679","0.0-165.0","e3wk0mnvwk","NaN","<div style=""width:500px;"">
                                <p style=""font-size:50px; font-weight:bold;""
                                ></p>
                                <div style=""width:240px; margin: auto;"">
                                    <img src=""images/D68.png"" style= ""width:200px""alt=""img"">
                                </div>
                            </div>","-151","","0","images/D68.png","","","","[""Stripey"",""Blobby""]"
"","","","","","html-slider-response","174","686357","0.0-166.0","e3wk0mnvwk","NaN","<div style=""width:500px;"">
                                <p style=""font-size:50px; font-weight:bold;""
                                ></p>
                                <div style=""width:240px; margin: auto;"">
                                    <img src=""images/D47.png"" style= ""width:200px""alt=""img"">
                                </div>
                            </div>","-200","","0","images/D47.png","","","","[""Stripey"",""Blobby""]"
"","","","","","html-slider-response","175","688739","0.0-167.0","e3wk0mnvwk","NaN","<div style=""width:500px;"">
                                <p style=""font-size:50px; font-weight:bold;""
                                ></p>
                                <div style=""width:240px; margin: auto;"">
                                    <img src=""images/D26.png"" style= ""width:200px""alt=""img"">
                                </div>
                            </div>","-57","","0","images/D26.png","","","","[""Stripey"",""Blobby""]"
"","","","","","html-slider-response","176","690897","0.0-168.0","e3wk0mnvwk","NaN","<div style=""width:500px;"">
                                <p style=""font-size:50px; font-weight:bold;""
                                ></p>
                                <div style=""width:240px; margin: auto;"">
                                    <img src=""images/D65.png"" style= ""width:200px""alt=""img"">
                                </div>
                            </div>","-73","","0","images/D65.png","","","","[""Stripey"",""Blobby""]"
"","","","","","html-slider-response","177","692845","0.0-169.0","e3wk0mnvwk","NaN","<div style=""width:500px;"">
                                <p style=""font-size:50px; font-weight:bold;""
                                ></p>
                                <div style=""width:240px; margin: auto;"">
                                    <img src=""images/D19.png"" style= ""width:200px""alt=""img"">
                                </div>
                            </div>","60","","0","images/D19.png","","","","[""Stripey"",""Blobby""]"
"","","","","","html-slider-response","178","694362","0.0-170.0","e3wk0mnvwk","NaN","<div style=""width:500px;"">
                                <p style=""font-size:50px; font-weight:bold;""
                                ></p>
                                <div style=""width:240px; margin: auto;"">
                                    <img src=""images/D103.png"" style= ""width:200px""alt=""img"">
                                </div>
                            </div>","104","","0","images/D103.png","","","","[""Stripey"",""Blobby""]"
"","","","","","html-slider-response","179","696113","0.0-171.0","e3wk0mnvwk","NaN","<div style=""width:500px;"">
                                <p style=""font-size:50px; font-weight:bold;""
                                ></p>
                                <div style=""width:240px; margin: auto;"">
                                    <img src=""images/D46.png"" style= ""width:200px""alt=""img"">
                                </div>
                            </div>","-101","","0","images/D46.png","","","","[""Stripey"",""Blobby""]"
"","","","","","html-slider-response","180","697846","0.0-172.0","e3wk0mnvwk","NaN","<div style=""width:500px;"">
                                <p style=""font-size:50px; font-weight:bold;""
                                ></p>
                                <div style=""width:240px; margin: auto;"">
                                    <img src=""images/D34.png"" style= ""width:200px""alt=""img"">
                                </div>
                            </div>","123","","0","images/D34.png","","","","[""Stripey"",""Blobby""]"
"","","","","","html-slider-response","181","701547","0.0-173.0","e3wk0mnvwk","NaN","<div style=""width:500px;"">
                                <p style=""font-size:50px; font-weight:bold;""
                                ></p>
                                <div style=""width:240px; margin: auto;"">
                                    <img src=""images/D32.png"" style= ""width:200px""alt=""img"">
                                </div>
                            </div>","43","","0","images/D32.png","","","","[""Stripey"",""Blobby""]"
"","","","","","html-slider-response","182","703547","0.0-174.0","e3wk0mnvwk","NaN","<div style=""width:500px;"">
                                <p style=""font-size:50px; font-weight:bold;""
                                ></p>
                                <div style=""width:240px; margin: auto;"">
                                    <img src=""images/D95.png"" style= ""width:200px""alt=""img"">
                                </div>
                            </div>","-57","","0","images/D95.png","","","","[""Stripey"",""Blobby""]"
"","","","","","html-slider-response","183","705691","0.0-175.0","e3wk0mnvwk","NaN","<div style=""width:500px;"">
                                <p style=""font-size:50px; font-weight:bold;""
                                ></p>
                                <div style=""width:240px; margin: auto;"">
                                    <img src=""images/D51.png"" style= ""width:200px""alt=""img"">
                                </div>
                            </div>","-200","","0","images/D51.png","","","","[""Stripey"",""Blobby""]"
"","","","","","html-slider-response","184","708196","0.0-176.0","e3wk0mnvwk","NaN","<div style=""width:500px;"">
                                <p style=""font-size:50px; font-weight:bold;""
                                ></p>
                                <div style=""width:240px; margin: auto;"">
                                    <img src=""images/D102.png"" style= ""width:200px""alt=""img"">
                                </div>
                            </div>","-169","","0","images/D102.png","","","","[""Stripey"",""Blobby""]"
"","","","","","html-slider-response","185","710375","0.0-177.0","e3wk0mnvwk","NaN","<div style=""width:500px;"">
                                <p style=""font-size:50px; font-weight:bold;""
                                ></p>
                                <div style=""width:240px; margin: auto;"">
                                    <img src=""images/D64.png"" style= ""width:200px""alt=""img"">
                                </div>
                            </div>","-200","","0","images/D64.png","","","","[""Stripey"",""Blobby""]"
"","","","","","html-slider-response","186","712391","0.0-178.0","e3wk0mnvwk","NaN","<div style=""width:500px;"">
                                <p style=""font-size:50px; font-weight:bold;""
                                ></p>
                                <div style=""width:240px; margin: auto;"">
                                    <img src=""images/D85.png"" style= ""width:200px""alt=""img"">
                                </div>
                            </div>","-200","","0","images/D85.png","","","","[""Stripey"",""Blobby""]"
"","","","","","html-slider-response","187","715141","0.0-179.0","e3wk0mnvwk","NaN","<div style=""width:500px;"">
                                <p style=""font-size:50px; font-weight:bold;""
                                ></p>
                                <div style=""width:240px; margin: auto;"">
                                    <img src=""images/D96.png"" style= ""width:200px""alt=""img"">
                                </div>
                            </div>","-28","","0","images/D96.png","","","","[""Stripey"",""Blobby""]"
"","","","","","html-slider-response","188","718147","0.0-180.0","e3wk0mnvwk","NaN","<div style=""width:500px;"">
                                <p style=""font-size:50px; font-weight:bold;""
                                ></p>
                                <div style=""width:240px; margin: auto;"">
                                    <img src=""images/D56.png"" style= ""width:200px""alt=""img"">
                                </div>
                            </div>","-97","","0","images/D56.png","","","","[""Stripey"",""Blobby""]"
"","","","","","html-slider-response","189","722363","0.0-181.0","e3wk0mnvwk","NaN","<div style=""width:500px;"">
                                <p style=""font-size:50px; font-weight:bold;""
                                ></p>
                                <div style=""width:240px; margin: auto;"">
