"success","timeout","failed_images","failed_audio","failed_video","trial_type","trial_index","time_elapsed","internal_node_id","subject_id","rt","stimulus","response","question_order","slider_start","image_path","practiceTrial","practiceTrialNum","correct","slider_labels"
"true","false","[]","[]","[]","preload","0","376","0.0-0.0","fkzvrgn55e","","","","","","","","","",""
"","","","","","html-button-response","1","3265621","0.0-1.0","fkzvrgn55e","60722","<div style='text-align:center; font-size:20px; line-height:25px; width: 1200px;'>
                Welcome to our experiment! <br>
                <br>At the bottom of this screen, you will see a button that says 'Begin Experiment.
                <br>Please only click that button when you are ready to complete the 25 minute experiment in one sitting. <br>
                <br> Once you click that button, it will not be possible to restart the experiment. <br><br>","0","","","","","","",""
"true","","","","","fullscreen","2","3268071","0.0-2.0","fkzvrgn55e","1441","","","","","","","","",""
"","","","","","survey-multi-select","3","3271923","0.0-3.0","fkzvrgn55e","3839","","{""Consent"":[""<strong>I consent</strong>""]}","[0]","","","","","",""
"","","","","","html-button-response","4","3273302","0.0-4.0","fkzvrgn55e","1375","Welcome! <p> This experiment involves two parts: demographic information, followed by the experimental task.<p> It will take about 25 minutes to complete both parts.","0","","","","","","",""
"","","","","","survey-text","5","3280725","0.0-5.0","fkzvrgn55e","7394","","{""Age"":""18"",""Gender"":""female"",""Race/ethnicity"":""white/asian""}","","","","","","",""
"","","","","","html-slider-response","6","3288555","0.0-6.0","fkzvrgn55e","7822","
                <div style='text-align:center; height: auto; margin-left=-100px; margin-bottom: -20px; font-size:20px; line-height:5px; width: 1200px;'>
                    <br>During this experiment, you will see a series of textures, one at a time, like the ones below: 
                </div>
                    <br>
                    <br>
                    <img src=""anchoring_visual_textures.png"" alt=""img"" style=""max-width:1200px; margin-left: -10px;"">
                </div>
                <div style=""clear: both;""></div>
                </div>
                    <div style='text-align:center; margin-left=-100px; font-size:20px; line-height:20px; width: 1200px; margin-top: -50px;'>
                    
                    <br> For each texture, you will be asked to rate where you think it falls on each of the response scales with the following endpoints:
                    </div>
                            <div style=""text-align: center; width: 1400px; "">
                                <p style=""font-size:20px; line-height:5px; ""><b>Stripey</b> versus <b>Blobby</b></p>
                                <p style=""font-size:20px; line-height:5px; ""><b>Rectangular</b> versus <b>Rounded</b></p>
                                <p style=""font-size:20px;line-height:5px;""><b>Fine</b> versus <b>Coarse</b></p>
                                <p style=""font-size:20px;line-height:5px; ""><b>Smooth</b> versus <b>Rough</b></p>
                                <p style=""font-size:20px;line-height:5px; ""><b>Non-Random</b> versus <b>Random</b></p>
                                <p style=""font-size:20px;line-height:5px;""><b>Soft</b> versus <b>Hard</b></p>
                            </div>
                            <div style='text-align:center; font-size:20px; line-height:20px; width: 1400px;'>
                    
                    Each trial will include one texture and one response scale. You will be asked to make your rating by sliding the cursor along a slider response scale like the one below.
                    <br><br> Before beginning, please look at the textures and scales. For each scale, think about the texture you associate most with the left endpoint. When you see that texture for that response scale, please click near the left of the scale.
                    <br><br> Now, please think about the texture you associate most with the right endpoint of each scale. When you see that texture for that response scale, please click near the right of the scale. 
                    <br><br> If you think a texture is not strongly associated with either endpoint of the scale, please click near the midpoint of the scale. Please use the full range of the scale. 
                    <br><br> You will be asked to rate each texture for a given scale before moving on to the next scale.
                    <br><br> Please press the 'Continue' button for instructions on how to use the slider.                     <br><br>
                ","null","","0","visual_textures_anchoring.png","true","","",""
"","","","","","html-button-response","7","3289705","0.0-7.0","fkzvrgn55e","1148","<div style=""width:1200px; margin-top:-150px;""><p style=""text-align:center; font-size:24px;"">To move the slider, click and drag your cursor to the location of the scale where you would like to make your rating and then let go. <br><br> When you let go of the slider, your response will be recorded and the next trial will begin. <br><br><br>
                We are interested in your initial impressions of each texture and scale, so please go with your first intuition. <br><br>
                Before you begin the experiment, there will be four training trials for you to practice using the scale. <br><br><br><br></div>
                <div style=""width:1200px;""><p style=""text-align:center; font-size:20px;"">When you are ready to start the training trials, please click ""Continue"".</p></div>","0","","","","","","",""
"","","","","","html-slider-response","8","3291517","0.0-8.0-0.0","fkzvrgn55e","NaN","<div style=""width:500px;"">
                                <p style=""font-size:25px;"">Please move the slider all the way to the <br> right endpoint of the scale</p>

                                </div>
                            </div>","200","","0","","true","0","true",""
"","","","","","html-button-response","9","3292725","0.0-8.0-1.0","fkzvrgn55e","706","<p align='center'><b>Good job!</b> Click on 'Continue' to proceed.</p>","0","","","","","","",""
"","","","","","html-slider-response","10","3293672","0.0-9.0-0.0","fkzvrgn55e","NaN","<div style=""width:500px;"">
                                <p style=""font-size:25px;"">Please move the slider all the way to the <br> left endpoint of the scale</p>

                                </div>
                            </div>","-195","","0","","true","1","true",""
"","","","","","html-button-response","11","3295066","0.0-9.0-1.0","fkzvrgn55e","892","<p align='center'><b>Good job!</b> Click on 'Continue' to proceed.</p>","0","","","","","","",""
"","","","","","html-slider-response","12","3297406","0.0-10.0-0.0","fkzvrgn55e","NaN","<div style=""width:500px;"">
                                <p style=""font-size:25px;"">Please move the slider halfway between the center and right endpoint of the scale</p>

                                </div>
                            </div>","103","","0","","true","2","true",""
"","","","","","html-button-response","13","3298568","0.0-10.0-1.0","fkzvrgn55e","661","<p align='center'><b>Good job!</b> Click on 'Continue' to proceed.</p>","0","","","","","","",""
"","","","","","html-slider-response","14","3300068","0.0-11.0-0.0","fkzvrgn55e","NaN","<div style=""width:500px;"">
                                <p style=""font-size:25px;"">Please move the slider halfway between the center and left endpoint of the scale</p>

                                </div>
                            </div>","-99","","0","","true","3","true",""
"","","","","","html-button-response","15","3301164","0.0-11.0-1.0","fkzvrgn55e","594","<p align='center'><b>Good job!</b> Click on 'Continue' to proceed.</p>","0","","","","","","",""
"","","","","","html-button-response","16","3301983","0.0-12.0","fkzvrgn55e","818","<div style=""width:800px; margin-top:-300px;""><p style=""text-align:center; font-size:22px; line-height:25px;""""> Great job! You've completed the practice trials.</div>
                     <div style=""width:800px; margin-top:-20px;""><p style=""text-align:center""><br><br> In the following trials, you will be asked to rate textures on each scale one-by-one. <br> You will be given opportunities to take breaks when you have completed each block of trials. There are six total blocks of trials. <br><br> Please click continue to begin the main task.<br><br><br> </div>","0","","","","","","",""
"","","","","","html-button-response","17","3302672","0.0-13.0","fkzvrgn55e","688","In the following trials, you will be asked to rate textures on the scale <b>Stripey</b> versus <b>Blobby</b>. Please click 'Continue' when you are ready proceed.","0","","","","","","",""
"","","","","","html-slider-response","18","3307707","0.0-14.0","fkzvrgn55e","NaN","<div style=""width:500px;"">
                                <p style=""font-size:50px; font-weight:bold;""
                                ></p>
                                <div style=""width:240px; margin: auto;"">
                                    <img src=""images/D46.png"" style= ""width:200px""alt=""img"">
                                </div>
                            </div>","-173","","0","images/D46.png","","","","[""Stripey"",""Blobby""]"
"","","","","","html-slider-response","19","3309619","0.0-15.0","fkzvrgn55e","NaN","<div style=""width:500px;"">
                                <p style=""font-size:50px; font-weight:bold;""
                                ></p>
                                <div style=""width:240px; margin: auto;"">
                                    <img src=""images/D103.png"" style= ""width:200px""alt=""img"">
                                </div>
                            </div>","-132","","0","images/D103.png","","","","[""Stripey"",""Blobby""]"
"","","","","","html-slider-response","20","3311244","0.0-16.0","fkzvrgn55e","NaN","<div style=""width:500px;"">
                                <p style=""font-size:50px; font-weight:bold;""
                                ></p>
                                <div style=""width:240px; margin: auto;"">
                                    <img src=""images/D47.png"" style= ""width:200px""alt=""img"">
                                </div>
                            </div>","-66","","0","images/D47.png","","","","[""Stripey"",""Blobby""]"
"","","","","","html-slider-response","21","3313231","0.0-17.0","fkzvrgn55e","NaN","<div style=""width:500px;"">
                                <p style=""font-size:50px; font-weight:bold;""
                                ></p>
                                <div style=""width:240px; margin: auto;"">
                                    <img src=""images/D55.png"" style= ""width:200px""alt=""img"">
                                </div>
                            </div>","-64","","0","images/D55.png","","","","[""Stripey"",""Blobby""]"
"","","","","","html-slider-response","22","3314757","0.0-18.0","fkzvrgn55e","NaN","<div style=""width:500px;"">
                                <p style=""font-size:50px; font-weight:bold;""
                                ></p>
                                <div style=""width:240px; margin: auto;"">
                                    <img src=""images/D79.png"" style= ""width:200px""alt=""img"">
                                </div>
                            </div>","-101","","0","images/D79.png","","","","[""Stripey"",""Blobby""]"
"","","","","","html-slider-response","23","3316835","0.0-19.0","fkzvrgn55e","NaN","<div style=""width:500px;"">
                                <p style=""font-size:50px; font-weight:bold;""
                                ></p>
                                <div style=""width:240px; margin: auto;"">
                                    <img src=""images/D102.png"" style= ""width:200px""alt=""img"">
                                </div>
                            </div>","74","","0","images/D102.png","","","","[""Stripey"",""Blobby""]"
"","","","","","html-slider-response","24","3318903","0.0-20.0","fkzvrgn55e","NaN","<div style=""width:500px;"">
                                <p style=""font-size:50px; font-weight:bold;""
                                ></p>
                                <div style=""width:240px; margin: auto;"">
                                    <img src=""images/D17.png"" style= ""width:200px""alt=""img"">
                                </div>
                            </div>","63","","0","images/D17.png","","","","[""Stripey"",""Blobby""]"
"","","","","","html-slider-response","25","3321037","0.0-21.0","fkzvrgn55e","NaN","<div style=""width:500px;"">
                                <p style=""font-size:50px; font-weight:bold;""
                                ></p>
                                <div style=""width:240px; margin: auto;"">
                                    <img src=""images/D18.png"" style= ""width:200px""alt=""img"">
                                </div>
                            </div>","200","","0","images/D18.png","","","","[""Stripey"",""Blobby""]"
"","","","","","html-slider-response","26","3323664","0.0-22.0","fkzvrgn55e","NaN","<div style=""width:500px;"">
                                <p style=""font-size:50px; font-weight:bold;""
                                ></p>
                                <div style=""width:240px; margin: auto;"">
                                    <img src=""images/D104.png"" style= ""width:200px""alt=""img"">
                                </div>
                            </div>","1","","0","images/D104.png","","","","[""Stripey"",""Blobby""]"
"","","","","","html-slider-response","27","3325185","0.0-23.0","fkzvrgn55e","NaN","<div style=""width:500px;"">
                                <p style=""font-size:50px; font-weight:bold;""
                                ></p>
                                <div style=""width:240px; margin: auto;"">
                                    <img src=""images/D49.png"" style= ""width:200px""alt=""img"">
                                </div>
                            </div>","-78","","0","images/D49.png","","","","[""Stripey"",""Blobby""]"
"","","","","","html-slider-response","28","3326991","0.0-24.0","fkzvrgn55e","NaN","<div style=""width:500px;"">
                                <p style=""font-size:50px; font-weight:bold;""
                                ></p>
                                <div style=""width:240px; margin: auto;"">
                                    <img src=""images/D80.png"" style= ""width:200px""alt=""img"">
                                </div>
                            </div>","86","","0","images/D80.png","","","","[""Stripey"",""Blobby""]"
"","","","","","html-slider-response","29","3329500","0.0-25.0","fkzvrgn55e","NaN","<div style=""width:500px;"">
                                <p style=""font-size:50px; font-weight:bold;""
                                ></p>
                                <div style=""width:240px; margin: auto;"">
                                    <img src=""images/D52.png"" style= ""width:200px""alt=""img"">
                                </div>
                            </div>","10","","0","images/D52.png","","","","[""Stripey"",""Blobby""]"
"","","","","","html-slider-response","30","3331321","0.0-26.0","fkzvrgn55e","NaN","<div style=""width:500px;"">
                                <p style=""font-size:50px; font-weight:bold;""
                                ></p>
                                <div style=""width:240px; margin: auto;"">
                                    <img src=""images/D21.png"" style= ""width:200px""alt=""img"">
                                </div>
                            </div>","3","","0","images/D21.png","","","","[""Stripey"",""Blobby""]"
"","","","","","html-slider-response","31","3332496","0.0-27.0","fkzvrgn55e","NaN","<div style=""width:500px;"">
                                <p style=""font-size:50px; font-weight:bold;""
                                ></p>
                                <div style=""width:240px; margin: auto;"">
                                    <img src=""images/D34.png"" style= ""width:200px""alt=""img"">
                                </div>
                            </div>","2","","0","images/D34.png","","","","[""Stripey"",""Blobby""]"
"","","","","","html-slider-response","32","3335213","0.0-28.0","fkzvrgn55e","NaN","<div style=""width:500px;"">
                                <p style=""font-size:50px; font-weight:bold;""
                                ></p>
                                <div style=""width:240px; margin: auto;"">
                                    <img src=""images/D111.png"" style= ""width:200px""alt=""img"">
                                </div>
                            </div>","200","","0","images/D111.png","","","","[""Stripey"",""Blobby""]"
"","","","","","html-slider-response","33","3336648","0.0-29.0","fkzvrgn55e","NaN","<div style=""width:500px;"">
                                <p style=""font-size:50px; font-weight:bold;""
                                ></p>
                                <div style=""width:240px; margin: auto;"">
                                    <img src=""images/D87.png"" style= ""width:200px""alt=""img"">
                                </div>
                            </div>","143","","0","images/D87.png","","","","[""Stripey"",""Blobby""]"
"","","","","","html-slider-response","34","3338175","0.0-30.0","fkzvrgn55e","NaN","<div style=""width:500px;"">
                                <p style=""font-size:50px; font-weight:bold;""
                                ></p>
                                <div style=""width:240px; margin: auto;"">
                                    <img src=""images/D6.png"" style= ""width:200px""alt=""img"">
                                </div>
                            </div>","143","","0","images/D6.png","","","","[""Stripey"",""Blobby""]"
"","","","","","html-slider-response","35","3339324","0.0-31.0","fkzvrgn55e","NaN","<div style=""width:500px;"">
                                <p style=""font-size:50px; font-weight:bold;""
                                ></p>
                                <div style=""width:240px; margin: auto;"">
                                    <img src=""images/D24.png"" style= ""width:200px""alt=""img"">
                                </div>
                            </div>","143","","0","images/D24.png","","","","[""Stripey"",""Blobby""]"
"","","","","","html-slider-response","36","3342042","0.0-32.0","fkzvrgn55e","NaN","<div style=""width:500px;"">
                                <p style=""font-size:50px; font-weight:bold;""
                                ></p>
                                <div style=""width:240px; margin: auto;"">
                                    <img src=""images/D26.png"" style= ""width:200px""alt=""img"">
                                </div>
                            </div>","-63","","0","images/D26.png","","","","[""Stripey"",""Blobby""]"
"","","","","","html-slider-response","37","3343840","0.0-33.0","fkzvrgn55e","NaN","<div style=""width:500px;"">
                                <p style=""font-size:50px; font-weight:bold;""
                                ></p>
                                <div style=""width:240px; margin: auto;"">
                                    <img src=""images/D48.png"" style= ""width:200px""alt=""img"">
                                </div>
                            </div>","32","","0","images/D48.png","","","","[""Stripey"",""Blobby""]"
"","","","","","html-slider-response","38","3345299","0.0-34.0","fkzvrgn55e","NaN","<div style=""width:500px;"">
                                <p style=""font-size:50px; font-weight:bold;""
                                ></p>
                                <div style=""width:240px; margin: auto;"">
                                    <img src=""images/D51.png"" style= ""width:200px""alt=""img"">
                                </div>
                            </div>","-67","","0","images/D51.png","","","","[""Stripey"",""Blobby""]"
"","","","","","html-slider-response","39","3346975","0.0-35.0","fkzvrgn55e","NaN","<div style=""width:500px;"">
                                <p style=""font-size:50px; font-weight:bold;""
                                ></p>
                                <div style=""width:240px; margin: auto;"">
                                    <img src=""images/D20.png"" style= ""width:200px""alt=""img"">
                                </div>
                            </div>","-67","","0","images/D20.png","","","","[""Stripey"",""Blobby""]"
"","","","","","html-slider-response","40","3348022","0.0-36.0","fkzvrgn55e","NaN","<div style=""width:500px;"">
                                <p style=""font-size:50px; font-weight:bold;""
                                ></p>
                                <div style=""width:240px; margin: auto;"">
                                    <img src=""images/D65.png"" style= ""width:200px""alt=""img"">
                                </div>
                            </div>","-67","","0","images/D65.png","","","","[""Stripey"",""Blobby""]"
"","","","","","html-slider-response","41","3349050","0.0-37.0","fkzvrgn55e","NaN","<div style=""width:500px;"">
                                <p style=""font-size:50px; font-weight:bold;""
                                ></p>
                                <div style=""width:240px; margin: auto;"">
                                    <img src=""images/D66.png"" style= ""width:200px""alt=""img"">
                                </div>
                            </div>","-67","","0","images/D66.png","","","","[""Stripey"",""Blobby""]"
"","","","","","html-slider-response","42","3350290","0.0-38.0","fkzvrgn55e","NaN","<div style=""width:500px;"">
                                <p style=""font-size:50px; font-weight:bold;""
                                ></p>
                                <div style=""width:240px; margin: auto;"">
                                    <img src=""images/D56.png"" style= ""width:200px""alt=""img"">
                                </div>
                            </div>","-66","","0","images/D56.png","","","","[""Stripey"",""Blobby""]"
"","","","","","html-slider-response","43","3352161","0.0-39.0","fkzvrgn55e","NaN","<div style=""width:500px;"">
                                <p style=""font-size:50px; font-weight:bold;""
                                ></p>
                                <div style=""width:240px; margin: auto;"">
                                    <img src=""images/D92.png"" style= ""width:200px""alt=""img"">
                                </div>
                            </div>","165","","0","images/D92.png","","","","[""Stripey"",""Blobby""]"
"","","","","","html-slider-response","44","3353270","0.0-40.0","fkzvrgn55e","NaN","<div style=""width:500px;"">
                                <p style=""font-size:50px; font-weight:bold;""
                                ></p>
                                <div style=""width:240px; margin: auto;"">
                                    <img src=""images/D36.png"" style= ""width:200px""alt=""img"">
                                </div>
                            </div>","142","","0","images/D36.png","","","","[""Stripey"",""Blobby""]"
"","","","","","html-slider-response","45","3354214","0.0-41.0","fkzvrgn55e","NaN","<div style=""width:500px;"">
                                <p style=""font-size:50px; font-weight:bold;""
                                ></p>
                                <div style=""width:240px; margin: auto;"">
                                    <img src=""images/D82.png"" style= ""width:200px""alt=""img"">
                                </div>
                            </div>","142","","0","images/D82.png","","","","[""Stripey"",""Blobby""]"
"","","","","","html-slider-response","46","3354838","0.0-42.0","fkzvrgn55e","NaN","<div style=""width:500px;"">
                                <p style=""font-size:50px; font-weight:bold;""
                                ></p>
                                <div style=""width:240px; margin: auto;"">
                                    <img src=""images/D53.png"" style= ""width:200px""alt=""img"">
                                </div>
                            </div>","142","","0","images/D53.png","","","","[""Stripey"",""Blobby""]"
"","","","","","html-slider-response","47","3355608","0.0-43.0","fkzvrgn55e","NaN","<div style=""width:500px;"">
                                <p style=""font-size:50px; font-weight:bold;""
                                ></p>
                                <div style=""width:240px; margin: auto;"">
                                    <img src=""images/D11.png"" style= ""width:200px""alt=""img"">
                                </div>
                            </div>","142","","0","images/D11.png","","","","[""Stripey"",""Blobby""]"
"","","","","","html-slider-response","48","3356307","0.0-44.0","fkzvrgn55e","NaN","<div style=""width:500px;"">
                                <p style=""font-size:50px; font-weight:bold;""
                                ></p>
                                <div style=""width:240px; margin: auto;"">
                                    <img src=""images/D32.png"" style= ""width:200px""alt=""img"">
                                </div>
                            </div>","142","","0","images/D32.png","","","","[""Stripey"",""Blobby""]"
"","","","","","html-slider-response","49","3357210","0.0-45.0","fkzvrgn55e","NaN","<div style=""width:500px;"">
                                <p style=""font-size:50px; font-weight:bold;""
                                ></p>
                                <div style=""width:240px; margin: auto;"">
                                    <img src=""images/D37.png"" style= ""width:200px""alt=""img"">
                                </div>
                            </div>","142","","0","images/D37.png","","","","[""Stripey"",""Blobby""]"
"","","","","","html-slider-response","50","3357890","0.0-46.0","fkzvrgn55e","NaN","<div style=""width:500px;"">
                                <p style=""font-size:50px; font-weight:bold;""
                                ></p>
                                <div style=""width:240px; margin: auto;"">
                                    <img src=""images/D16.png"" style= ""width:200px""alt=""img"">
                                </div>
                            </div>","142","","0","images/D16.png","","","","[""Stripey"",""Blobby""]"
"","","","","","html-slider-response","51","3358539","0.0-47.0","fkzvrgn55e","NaN","<div style=""width:500px;"">
                                <p style=""font-size:50px; font-weight:bold;""
                                ></p>
                                <div style=""width:240px; margin: auto;"">
                                    <img src=""images/D75.png"" style= ""width:200px""alt=""img"">
                                </div>
                            </div>","142","","0","images/D75.png","","","","[""Stripey"",""Blobby""]"
"","","","","","html-slider-response","52","3359261","0.0-48.0","fkzvrgn55e","NaN","<div style=""width:500px;"">
                                <p style=""font-size:50px; font-weight:bold;""
                                ></p>
                                <div style=""width:240px; margin: auto;"">
                                    <img src=""images/D19.png"" style= ""width:200px""alt=""img"">
                                </div>
                            </div>","142","","0","images/D19.png","","","","[""Stripey"",""Blobby""]"
"","","","","","html-slider-response","53","3360107","0.0-49.0","fkzvrgn55e","NaN","<div style=""width:500px;"">
                                <p style=""font-size:50px; font-weight:bold;""
                                ></p>
                                <div style=""width:240px; margin: auto;"">
                                    <img src=""images/D4.png"" style= ""width:200px""alt=""img"">
                                </div>
                            </div>","142","","0","images/D4.png","","","","[""Stripey"",""Blobby""]"
"","","","","","html-slider-response","54","3360879","0.0-50.0","fkzvrgn55e","NaN","<div style=""width:500px;"">
                                <p style=""font-size:50px; font-weight:bold;""
                                ></p>
                                <div style=""width:240px; margin: auto;"">
                                    <img src=""images/D76.png"" style= ""width:200px""alt=""img"">
                                </div>
                            </div>","142","","0","images/D76.png","","","","[""Stripey"",""Blobby""]"
"","","","","","html-slider-response","55","3361592","0.0-51.0","fkzvrgn55e","NaN","<div style=""width:500px;"">
                                <p style=""font-size:50px; font-weight:bold;""
                                ></p>
                                <div style=""width:240px; margin: auto;"">
                                    <img src=""images/D81.png"" style= ""width:200px""alt=""img"">
                                </div>
                            </div>","142","","0","images/D81.png","","","","[""Stripey"",""Blobby""]"
"","","","","","html-slider-response","56","3362339","0.0-52.0","fkzvrgn55e","NaN","<div style=""width:500px;"">
                                <p style=""font-size:50px; font-weight:bold;""
                                ></p>
                                <div style=""width:240px; margin: auto;"">
                                    <img src=""images/D25.png"" style= ""width:200px""alt=""img"">
                                </div>
                            </div>","142","","0","images/D25.png","","","","[""Stripey"",""Blobby""]"
"","","","","","html-slider-response","57","3362987","0.0-53.0","fkzvrgn55e","NaN","<div style=""width:500px;"">
                                <p style=""font-size:50px; font-weight:bold;""
                                ></p>
                                <div style=""width:240px; margin: auto;"">
                                    <img src=""images/D14.png"" style= ""width:200px""alt=""img"">
                                </div>
                            </div>","142","","0","images/D14.png","","","","[""Stripey"",""Blobby""]"
"","","","","","html-slider-response","58","3363693","0.0-54.0","fkzvrgn55e","NaN","<div style=""width:500px;"">
                                <p style=""font-size:50px; font-weight:bold;""
                                ></p>
                                <div style=""width:240px; margin: auto;"">
                                    <img src=""images/D1.png"" style= ""width:200px""alt=""img"">
                                </div>
                            </div>","142","","0","images/D1.png","","","","[""Stripey"",""Blobby""]"
"","","","","","html-slider-response","59","3364367","0.0-55.0","fkzvrgn55e","NaN","<div style=""width:500px;"">
                                <p style=""font-size:50px; font-weight:bold;""
                                ></p>
                                <div style=""width:240px; margin: auto;"">
                                    <img src=""images/D22.png"" style= ""width:200px""alt=""img"">
                                </div>
                            </div>","142","","0","images/D22.png","","","","[""Stripey"",""Blobby""]"
"","","","","","html-slider-response","60","3365072","0.0-56.0","fkzvrgn55e","NaN","<div style=""width:500px;"">
                                <p style=""font-size:50px; font-weight:bold;""
                                ></p>
                                <div style=""width:240px; margin: auto;"">
                                    <img src=""images/D78.png"" style= ""width:200px""alt=""img"">
                                </div>
                            </div>","142","","0","images/D78.png","","","","[""Stripey"",""Blobby""]"
"","","","","","html-slider-response","61","3365754","0.0-57.0","fkzvrgn55e","NaN","<div style=""width:500px;"">
                                <p style=""font-size:50px; font-weight:bold;""
                                ></p>
                                <div style=""width:240px; margin: auto;"">
                                    <img src=""images/D74.png"" style= ""width:200px""alt=""img"">
                                </div>
                            </div>","142","","0","images/D74.png","","","","[""Stripey"",""Blobby""]"
"","","","","","html-slider-response","62","3366928","0.0-58.0","fkzvrgn55e","NaN","<div style=""width:500px;"">
                                <p style=""font-size:50px; font-weight:bold;""
                                ></p>
                                <div style=""width:240px; margin: auto;"">
                                    <img src=""images/D9.png"" style= ""width:200px""alt=""img"">
                                </div>
                            </div>","142","","0","images/D9.png","","","","[""Stripey"",""Blobby""]"
"","","","","","html-slider-response","63","3367634","0.0-59.0","fkzvrgn55e","NaN","<div style=""width:500px;"">
                                <p style=""font-size:50px; font-weight:bold;""
                                ></p>
                                <div style=""width:240px; margin: auto;"">
                                    <img src=""images/D83.png"" style= ""width:200px""alt=""img"">
                                </div>
                            </div>","142","","0","images/D83.png","","","","[""Stripey"",""Blobby""]"
"","","","","","html-slider-response","64","3368217","0.0-60.0","fkzvrgn55e","NaN","<div style=""width:500px;"">
                                <p style=""font-size:50px; font-weight:bold;""
                                ></p>
                                <div style=""width:240px; margin: auto;"">
                                    <img src=""images/D68.png"" style= ""width:200px""alt=""img"">
                                </div>
                            </div>","142","","0","images/D68.png","","","","[""Stripey"",""Blobby""]"
"","","","","","html-slider-response","65","3368873","0.0-61.0","fkzvrgn55e","NaN","<div style=""width:500px;"">
                                <p style=""font-size:50px; font-weight:bold;""
                                ></p>
                                <div style=""width:240px; margin: auto;"">
                                    <img src=""images/D101.png"" style= ""width:200px""alt=""img"">
                                </div>
                            </div>","142","","0","images/D101.png","","","","[""Stripey"",""Blobby""]"
"","","","","","html-slider-response","66","3369611","0.0-62.0","fkzvrgn55e","NaN","<div style=""width:500px;"">
                                <p style=""font-size:50px; font-weight:bold;""
                                ></p>
                                <div style=""width:240px; margin: auto;"">
                                    <img src=""images/D35.png"" style= ""width:200px""alt=""img"">
                                </div>
                            </div>","142","","0","images/D35.png","","","","[""Stripey"",""Blobby""]"
"","","","","","html-slider-response","67","3370342","0.0-63.0","fkzvrgn55e","NaN","<div style=""width:500px;"">
                                <p style=""font-size:50px; font-weight:bold;""
                                ></p>
                                <div style=""width:240px; margin: auto;"">
                                    <img src=""images/D29.png"" style= ""width:200px""alt=""img"">
                                </div>
                            </div>","142","","0","images/D29.png","","","","[""Stripey"",""Blobby""]"
"","","","","","html-slider-response","68","3371082","0.0-64.0","fkzvrgn55e","NaN","<div style=""width:500px;"">
                                <p style=""font-size:50px; font-weight:bold;""
                                ></p>
                                <div style=""width:240px; margin: auto;"">
                                    <img src=""images/D8.png"" style= ""width:200px""alt=""img"">
                                </div>
                            </div>","142","","0","images/D8.png","","","","[""Stripey"",""Blobby""]"
"","","","","","html-slider-response","69","3371837","0.0-65.0","fkzvrgn55e","NaN","<div style=""width:500px;"">
                                <p style=""font-size:50px; font-weight:bold;""
                                ></p>
                                <div style=""width:240px; margin: auto;"">
                                    <img src=""images/D3.png"" style= ""width:200px""alt=""img"">
                                </div>
                            </div>","142","","0","images/D3.png","","","","[""Stripey"",""Blobby""]"
"","","","","","html-slider-response","70","3372558","0.0-66.0","fkzvrgn55e","NaN","<div style=""width:500px;"">
                                <p style=""font-size:50px; font-weight:bold;""
                                ></p>
                                <div style=""width:240px; margin: auto;"">
                                    <img src=""images/D85.png"" style= ""width:200px""alt=""img"">
                                </div>
                            </div>","142","","0","images/D85.png","","","","[""Stripey"",""Blobby""]"
"","","","","","html-slider-response","71","3373412","0.0-67.0","fkzvrgn55e","NaN","<div style=""width:500px;"">
                                <p style=""font-size:50px; font-weight:bold;""
                                ></p>
                                <div style=""width:240px; margin: auto;"">
                                    <img src=""images/D105.png"" style= ""width:200px""alt=""img"">
                                </div>
                            </div>","142","","0","images/D105.png","","","","[""Stripey"",""Blobby""]"
"","","","","","html-slider-response","72","3374036","0.0-68.0","fkzvrgn55e","NaN","<div style=""width:500px;"">
                                <p style=""font-size:50px; font-weight:bold;""
                                ></p>
                                <div style=""width:240px; margin: auto;"">
                                    <img src=""images/D95.png"" style= ""width:200px""alt=""img"">
                                </div>
                            </div>","142","","0","images/D95.png","","","","[""Stripey"",""Blobby""]"
"","","","","","html-slider-response","73","3374701","0.0-69.0","fkzvrgn55e","NaN","<div style=""width:500px;"">
                                <p style=""font-size:50px; font-weight:bold;""
                                ></p>
                                <div style=""width:240px; margin: auto;"">
                                    <img src=""images/D57.png"" style= ""width:200px""alt=""img"">
                                </div>
                            </div>","142","","0","images/D57.png","","","","[""Stripey"",""Blobby""]"
"","","","","","html-slider-response","74","3375325","0.0-70.0","fkzvrgn55e","NaN","<div style=""width:500px;"">
                                <p style=""font-size:50px; font-weight:bold;""
                                ></p>
                                <div style=""width:240px; margin: auto;"">
                                    <img src=""images/D96.png"" style= ""width:200px""alt=""img"">
                                </div>
                            </div>","142","","0","images/D96.png","","","","[""Stripey"",""Blobby""]"
"","","","","","html-slider-response","75","3376153","0.0-71.0","fkzvrgn55e","NaN","<div style=""width:500px;"">
                                <p style=""font-size:50px; font-weight:bold;""
                                ></p>
                                <div style=""width:240px; margin: auto;"">
                                    <img src=""images/D94.png"" style= ""width:200px""alt=""img"">
                                </div>
                            </div>","142","","0","images/D94.png","","","","[""Stripey"",""Blobby""]"
"","","","","","html-slider-response","76","3376811","0.0-72.0","fkzvrgn55e","NaN","<div style=""width:500px;"">
                                <p style=""font-size:50px; font-weight:bold;""
                                ></p>
                                <div style=""width:240px; margin: auto;"">
                                    <img src=""images/D77.png"" style= ""width:200px""alt=""img"">
                                </div>
                            </div>","142","","0","images/D77.png","","","","[""Stripey"",""Blobby""]"
"","","","","","html-slider-response","77","3377467","0.0-73.0","fkzvrgn55e","NaN","<div style=""width:500px;"">
                                <p style=""font-size:50px; font-weight:bold;""
                                ></p>
                                <div style=""width:240px; margin: auto;"">
                                    <img src=""images/D84.png"" style= ""width:200px""alt=""img"">
                                </div>
                            </div>","142","","0","images/D84.png","","","","[""Stripey"",""Blobby""]"
"","","","","","html-slider-response","78","3378271","0.0-74.0","fkzvrgn55e","NaN","<div style=""width:500px;"">
                                <p style=""font-size:50px; font-weight:bold;""
                                ></p>
                                <div style=""width:240px; margin: auto;"">
                                    <img src=""images/D64.png"" style= ""width:200px""alt=""img"">
                                </div>
                            </div>","142","","0","images/D64.png","","","","[""Stripey"",""Blobby""]"
"","","","","","html-slider-response","79","3378928","0.0-75.0","fkzvrgn55e","NaN","<div style=""width:500px;"">
                                <p style=""font-size:50px; font-weight:bold;""
                                ></p>
                                <div style=""width:240px; margin: auto;"">
                                    <img src=""images/D106.png"" style= ""width:200px""alt=""img"">
                                </div>
                            </div>","142","","0","images/D106.png","","","","[""Stripey"",""Blobby""]"
"","","","","","html-button-response","80","3382702","0.0-76.0","fkzvrgn55e","3264","You have completed the first block of trials out of six. Please click 'Continue' when you are ready proceed.","0","","","","","","",""
"","","","","","html-button-response","81","3383467","0.0-77.0","fkzvrgn55e","755","In the following trials, you will be asked to rate textures on the scale <b>Fine</b> versus <b>Coarse</b>. Please click 'Continue' when you are ready proceed.","0","","","","","","",""
"","","","","","html-slider-response","82","3384989","0.0-78.0","fkzvrgn55e","NaN","<div style=""width:500px;"">
                                <p style=""font-size:50px; font-weight:bold;""
                                ></p>
                                <div style=""width:240px; margin: auto;"">
                                    <img src=""images/D46.png"" style= ""width:200px""alt=""img"">
                                </div>
                            </div>","121","","0","images/D46.png","","","","[""Fine"",""Coarse""]"
"","","","","","html-slider-response","83","3385642","0.0-79.0","fkzvrgn55e","NaN","<div style=""width:500px;"">
                                <p style=""font-size:50px; font-weight:bold;""
                                ></p>
                                <div style=""width:240px; margin: auto;"">
                                    <img src=""images/D103.png"" style= ""width:200px""alt=""img"">
                                </div>
                            </div>","121","","0","images/D103.png","","","","[""Fine"",""Coarse""]"
"","","","","","html-slider-response","84","3386636","0.0-80.0","fkzvrgn55e","NaN","<div style=""width:500px;"">
                                <p style=""font-size:50px; font-weight:bold;""
                                ></p>
                                <div style=""width:240px; margin: auto;"">
                                    <img src=""images/D47.png"" style= ""width:200px""alt=""img"">
                                </div>
                            </div>","121","","0","images/D47.png","","","","[""Fine"",""Coarse""]"
"","","","","","html-slider-response","85","3387704","0.0-81.0","fkzvrgn55e","NaN","<div style=""width:500px;"">
                                <p style=""font-size:50px; font-weight:bold;""
                                ></p>
                                <div style=""width:240px; margin: auto;"">
                                    <img src=""images/D55.png"" style= ""width:200px""alt=""img"">
                                </div>
                            </div>","120","","0","images/D55.png","","","","[""Fine"",""Coarse""]"
"","","","","","html-slider-response","86","3388574","0.0-82.0","fkzvrgn55e","NaN","<div style=""width:500px;"">
                                <p style=""font-size:50px; font-weight:bold;""
                                ></p>
                                <div style=""width:240px; margin: auto;"">
                                    <img src=""images/D79.png"" style= ""width:200px""alt=""img"">
                                </div>
                            </div>","120","","0","images/D79.png","","","","[""Fine"",""Coarse""]"
"","","","","","html-slider-response","87","3389328","0.0-83.0","fkzvrgn55e","NaN","<div style=""width:500px;"">
                                <p style=""font-size:50px; font-weight:bold;""
                                ></p>
                                <div style=""width:240px; margin: auto;"">
                                    <img src=""images/D102.png"" style= ""width:200px""alt=""img"">
                                </div>
                            </div>","120","","0","images/D102.png","","","","[""Fine"",""Coarse""]"
"","","","","","html-slider-response","88","3390075","0.0-84.0","fkzvrgn55e","NaN","<div style=""width:500px;"">
                                <p style=""font-size:50px; font-weight:bold;""
                                ></p>
                                <div style=""width:240px; margin: auto;"">
                                    <img src=""images/D17.png"" style= ""width:200px""alt=""img"">
                                </div>
                            </div>","120","","0","images/D17.png","","","","[""Fine"",""Coarse""]"
"","","","","","html-slider-response","89","3391118","0.0-85.0","fkzvrgn55e","NaN","<div style=""width:500px;"">
                                <p style=""font-size:50px; font-weight:bold;""
                                ></p>
                                <div style=""width:240px; margin: auto;"">
                                    <img src=""images/D18.png"" style= ""width:200px""alt=""img"">
                                </div>
                            </div>","120","","0","images/D18.png","","","","[""Fine"",""Coarse""]"
"","","","","","html-slider-response","90","3393456","0.0-86.0","fkzvrgn55e","NaN","<div style=""width:500px;"">
                                <p style=""font-size:50px; font-weight:bold;""
                                ></p>
                                <div style=""width:240px; margin: auto;"">
                                    <img src=""images/D104.png"" style= ""width:200px""alt=""img"">
                                </div>
                            </div>","120","","0","images/D104.png","","","","[""Fine"",""Coarse""]"
"","","","","","html-slider-response","91","3394434","0.0-87.0","fkzvrgn55e","NaN","<div style=""width:500px;"">
                                <p style=""font-size:50px; font-weight:bold;""
                                ></p>
                                <div style=""width:240px; margin: auto;"">
                                    <img src=""images/D49.png"" style= ""width:200px""alt=""img"">
                                </div>
                            </div>","120","","0","images/D49.png","","","","[""Fine"",""Coarse""]"
"","","","","","html-slider-response","92","3395434","0.0-88.0","fkzvrgn55e","NaN","<div style=""width:500px;"">
                                <p style=""font-size:50px; font-weight:bold;""
                                ></p>
                                <div style=""width:240px; margin: auto;"">
                                    <img src=""images/D80.png"" style= ""width:200px""alt=""img"">
                                </div>
                            </div>","120","","0","images/D80.png","","","","[""Fine"",""Coarse""]"
"","","","","","html-slider-response","93","3396231","0.0-89.0","fkzvrgn55e","NaN","<div style=""width:500px;"">
                                <p style=""font-size:50px; font-weight:bold;""
                                ></p>
                                <div style=""width:240px; margin: auto;"">
                                    <img src=""images/D52.png"" style= ""width:200px""alt=""img"">
                                </div>
                            </div>","120","","0","images/D52.png","","","","[""Fine"",""Coarse""]"
"","","","","","html-slider-response","94","3397003","0.0-90.0","fkzvrgn55e","NaN","<div style=""width:500px;"">
                                <p style=""font-size:50px; font-weight:bold;""
                                ></p>
                                <div style=""width:240px; margin: auto;"">
                                    <img src=""images/D21.png"" style= ""width:200px""alt=""img"">
                                </div>
                            </div>","120","","0","images/D21.png","","","","[""Fine"",""Coarse""]"
"","","","","","html-slider-response","95","3397783","0.0-91.0","fkzvrgn55e","NaN","<div style=""width:500px;"">
                                <p style=""font-size:50px; font-weight:bold;""
                                ></p>
                                <div style=""width:240px; margin: auto;"">
                                    <img src=""images/D34.png"" style= ""width:200px""alt=""img"">
                                </div>
                            </div>","120","","0","images/D34.png","","","","[""Fine"",""Coarse""]"
"","","","","","html-slider-response","96","3398587","0.0-92.0","fkzvrgn55e","NaN","<div style=""width:500px;"">
                                <p style=""font-size:50px; font-weight:bold;""
                                ></p>
                                <div style=""width:240px; margin: auto;"">
                                    <img src=""images/D111.png"" style= ""width:200px""alt=""img"">
                                </div>
                            </div>","120","","0","images/D111.png","","","","[""Fine"",""Coarse""]"
"","","","","","html-slider-response","97","3399204","0.0-93.0","fkzvrgn55e","NaN","<div style=""width:500px;"">
                                <p style=""font-size:50px; font-weight:bold;""
                                ></p>
                                <div style=""width:240px; margin: auto;"">
                                    <img src=""images/D87.png"" style= ""width:200px""alt=""img"">
                                </div>
                            </div>","120","","0","images/D87.png","","","","[""Fine"",""Coarse""]"
"","","","","","html-slider-response","98","3399834","0.0-94.0","fkzvrgn55e","NaN","<div style=""width:500px;"">
                                <p style=""font-size:50px; font-weight:bold;""
                                ></p>
                                <div style=""width:240px; margin: auto;"">
                                    <img src=""images/D6.png"" style= ""width:200px""alt=""img"">
                                </div>
                            </div>","120","","0","images/D6.png","","","","[""Fine"",""Coarse""]"
"","","","","","html-slider-response","99","3400500","0.0-95.0","fkzvrgn55e","NaN","<div style=""width:500px;"">
                                <p style=""font-size:50px; font-weight:bold;""
                                ></p>
                                <div style=""width:240px; margin: auto;"">
                                    <img src=""images/D24.png"" style= ""width:200px""alt=""img"">
                                </div>
                            </div>","120","","0","images/D24.png","","","","[""Fine"",""Coarse""]"
"","","","","","html-slider-response","100","3401124","0.0-96.0","fkzvrgn55e","NaN","<div style=""width:500px;"">
                                <p style=""font-size:50px; font-weight:bold;""
                                ></p>
                                <div style=""width:240px; margin: auto;"">
                                    <img src=""images/D26.png"" style= ""width:200px""alt=""img"">
                                </div>
                            </div>","120","","0","images/D26.png","","","","[""Fine"",""Coarse""]"
"","","","","","html-slider-response","101","3401822","0.0-97.0","fkzvrgn55e","NaN","<div style=""width:500px;"">
                                <p style=""font-size:50px; font-weight:bold;""
                                ></p>
                                <div style=""width:240px; margin: auto;"">
                                    <img src=""images/D48.png"" style= ""width:200px""alt=""img"">
                                </div>
                            </div>","120","","0","images/D48.png","","","","[""Fine"",""Coarse""]"
"","","","","","html-slider-response","102","3402453","0.0-98.0","fkzvrgn55e","NaN","<div style=""width:500px;"">
                                <p style=""font-size:50px; font-weight:bold;""
                                ></p>
                                <div style=""width:240px; margin: auto;"">
                                    <img src=""images/D51.png"" style= ""width:200px""alt=""img"">
                                </div>
                            </div>","120","","0","images/D51.png","","","","[""Fine"",""Coarse""]"
"","","","","","html-slider-response","103","3403086","0.0-99.0","fkzvrgn55e","NaN","<div style=""width:500px;"">
                                <p style=""font-size:50px; font-weight:bold;""
                                ></p>
                                <div style=""width:240px; margin: auto;"">
                                    <img src=""images/D20.png"" style= ""width:200px""alt=""img"">
                                </div>
                            </div>","120","","0","images/D20.png","","","","[""Fine"",""Coarse""]"
"","","","","","html-slider-response","104","3404260","0.0-100.0","fkzvrgn55e","NaN","<div style=""width:500px;"">
                                <p style=""font-size:50px; font-weight:bold;""
                                ></p>
                                <div style=""width:240px; margin: auto;"">
                                    <img src=""images/D65.png"" style= ""width:200px""alt=""img"">
                                </div>
                            </div>","120","","0","images/D65.png","","","","[""Fine"",""Coarse""]"
"","","","","","html-slider-response","105","3405334","0.0-101.0","fkzvrgn55e","NaN","<div style=""width:500px;"">
                                <p style=""font-size:50px; font-weight:bold;""
                                ></p>
                                <div style=""width:240px; margin: auto;"">
                                    <img src=""images/D66.png"" style= ""width:200px""alt=""img"">
                                </div>
                            </div>","120","","0","images/D66.png","","","","[""Fine"",""Coarse""]"
"","","","","","html-slider-response","106","3406394","0.0-102.0","fkzvrgn55e","NaN","<div style=""width:500px;"">
                                <p style=""font-size:50px; font-weight:bold;""
                                ></p>
                                <div style=""width:240px; margin: auto;"">
                                    <img src=""images/D56.png"" style= ""width:200px""alt=""img"">
                                </div>
                            </div>","120","","0","images/D56.png","","","","[""Fine"",""Coarse""]"
"","","","","","html-slider-response","107","3407609","0.0-103.0","fkzvrgn55e","NaN","<div style=""width:500px;"">
                                <p style=""font-size:50px; font-weight:bold;""
                                ></p>
                                <div style=""width:240px; margin: auto;"">
                                    <img src=""images/D92.png"" style= ""width:200px""alt=""img"">
                                </div>
                            </div>","120","","0","images/D92.png","","","","[""Fine"",""Coarse""]"
"","","","","","html-slider-response","108","3409004","0.0-104.0","fkzvrgn55e","NaN","<div style=""width:500px;"">
                                <p style=""font-size:50px; font-weight:bold;""
                                ></p>
                                <div style=""width:240px; margin: auto;"">
                                    <img src=""images/D36.png"" style= ""width:200px""alt=""img"">
                                </div>
                            </div>","120","","0","images/D36.png","","","","[""Fine"",""Coarse""]"
"","","","","","html-slider-response","109","3410373","0.0-105.0","fkzvrgn55e","NaN","<div style=""width:500px;"">
                                <p style=""font-size:50px; font-weight:bold;""
                                ></p>
                                <div style=""width:240px; margin: auto;"">
                                    <img src=""images/D82.png"" style= ""width:200px""alt=""img"">
                                </div>
                            </div>","120","","0","images/D82.png","","","","[""Fine"",""Coarse""]"
"","","","","","html-slider-response","110","3411721","0.0-106.0","fkzvrgn55e","NaN","<div style=""width:500px;"">
                                <p style=""font-size:50px; font-weight:bold;""
                                ></p>
                                <div style=""width:240px; margin: auto;"">
                                    <img src=""images/D53.png"" style= ""width:200px""alt=""img"">
                                </div>
                            </div>","120","","0","images/D53.png","","","","[""Fine"",""Coarse""]"
"","","","","","html-slider-response","111","3412713","0.0-107.0","fkzvrgn55e","NaN","<div style=""width:500px;"">
                                <p style=""font-size:50px; font-weight:bold;""
                                ></p>
                                <div style=""width:240px; margin: auto;"">
                                    <img src=""images/D11.png"" style= ""width:200px""alt=""img"">
                                </div>
                            </div>","121","","0","images/D11.png","","","","[""Fine"",""Coarse""]"
"","","","","","html-slider-response","112","3415143","0.0-108.0","fkzvrgn55e","NaN","<div style=""width:500px;"">
                                <p style=""font-size:50px; font-weight:bold;""
                                ></p>
                                <div style=""width:240px; margin: auto;"">
                                    <img src=""images/D32.png"" style= ""width:200px""alt=""img"">
                                </div>
                            </div>","121","","0","images/D32.png","","","","[""Fine"",""Coarse""]"
"","","","","","html-slider-response","113","3417022","0.0-109.0","fkzvrgn55e","NaN","<div style=""width:500px;"">
                                <p style=""font-size:50px; font-weight:bold;""
                                ></p>
                                <div style=""width:240px; margin: auto;"">
                                    <img src=""images/D37.png"" style= ""width:200px""alt=""img"">
                                </div>
                            </div>","121","","0","images/D37.png","","","","[""Fine"",""Coarse""]"
"","","","","","html-slider-response","114","3417884","0.0-110.0","fkzvrgn55e","NaN","<div style=""width:500px;"">
                                <p style=""font-size:50px; font-weight:bold;""
                                ></p>
                                <div style=""width:240px; margin: auto;"">
                                    <img src=""images/D16.png"" style= ""width:200px""alt=""img"">
                                </div>
                            </div>","121","","0","images/D16.png","","","","[""Fine"",""Coarse""]"
"","","","","","html-slider-response","115","3419912","0.0-111.0","fkzvrgn55e","NaN","<div style=""width:500px;"">
                                <p style=""font-size:50px; font-weight:bold;""
                                ></p>
                                <div style=""width:240px; margin: auto;"">
                                    <img src=""images/D75.png"" style= ""width:200px""alt=""img"">
                                </div>
                            </div>","121","","0","images/D75.png","","","","[""Fine"",""Coarse""]"
"","","","","","html-slider-response","116","3420682","0.0-112.0","fkzvrgn55e","NaN","<div style=""width:500px;"">
                                <p style=""font-size:50px; font-weight:bold;""
                                ></p>
                                <div style=""width:240px; margin: auto;"">
                                    <img src=""images/D19.png"" style= ""width:200px""alt=""img"">
                                </div>
                            </div>","121","","0","images/D19.png","","","","[""Fine"",""Coarse""]"
"","","","","","html-slider-response","117","3421465","0.0-113.0","fkzvrgn55e","NaN","<div style=""width:500px;"">
                                <p style=""font-size:50px; font-weight:bold;""
                                ></p>
                                <div style=""width:240px; margin: auto;"">
                                    <img src=""images/D4.png"" style= ""width:200px""alt=""img"">
                                </div>
                            </div>","121","","0","images/D4.png","","","","[""Fine"",""Coarse""]"
"","","","","","html-slider-response","118","3422209","0.0-114.0","fkzvrgn55e","NaN","<div style=""width:500px;"">
                                <p style=""font-size:50px; font-weight:bold;""
                                ></p>
                                <div style=""width:240px; margin: auto;"">
                                    <img src=""images/D76.png"" style= ""width:200px""alt=""img"">
                                </div>
                            </div>","121","","0","images/D76.png","","","","[""Fine"",""Coarse""]"
"","","","","","html-slider-response","119","3423063","0.0-115.0","fkzvrgn55e","NaN","<div style=""width:500px;"">
                                <p style=""font-size:50px; font-weight:bold;""
                                ></p>
                                <div style=""width:240px; margin: auto;"">
                                    <img src=""images/D81.png"" style= ""width:200px""alt=""img"">
                                </div>
                            </div>","121","","0","images/D81.png","","","","[""Fine"",""Coarse""]"
"","","","","","html-slider-response","120","3423817","0.0-116.0","fkzvrgn55e","NaN","<div style=""width:500px;"">
                                <p style=""font-size:50px; font-weight:bold;""
                                ></p>
                                <div style=""width:240px; margin: auto;"">
                                    <img src=""images/D25.png"" style= ""width:200px""alt=""img"">
                                </div>
                            </div>","121","","0","images/D25.png","","","","[""Fine"",""Coarse""]"
"","","","","","html-slider-response","121","3424581","0.0-117.0","fkzvrgn55e","NaN","<div style=""width:500px;"">
                                <p style=""font-size:50px; font-weight:bold;""
                                ></p>
                                <div style=""width:240px; margin: auto;"">
                                    <img src=""images/D14.png"" style= ""width:200px""alt=""img"">
                                </div>
                            </div>","121","","0","images/D14.png","","","","[""Fine"",""Coarse""]"
"","","","","","html-slider-response","122","3425180","0.0-118.0","fkzvrgn55e","NaN","<div style=""width:500px;"">
                                <p style=""font-size:50px; font-weight:bold;""
                                ></p>
                                <div style=""width:240px; margin: auto;"">
                                    <img src=""images/D1.png"" style= ""width:200px""alt=""img"">
                                </div>
                            </div>","121","","0","images/D1.png","","","","[""Fine"",""Coarse""]"
"","","","","","html-slider-response","123","3425771","0.0-119.0","fkzvrgn55e","NaN","<div style=""width:500px;"">
                                <p style=""font-size:50px; font-weight:bold;""
                                ></p>
                                <div style=""width:240px; margin: auto;"">
                                    <img src=""images/D22.png"" style= ""width:200px""alt=""img"">
                                </div>
                            </div>","121","","0","images/D22.png","","","","[""Fine"",""Coarse""]"
"","","","","","html-slider-response","124","3426420","0.0-120.0","fkzvrgn55e","NaN","<div style=""width:500px;"">
                                <p style=""font-size:50px; font-weight:bold;""
                                ></p>
                                <div style=""width:240px; margin: auto;"">
                                    <img src=""images/D78.png"" style= ""width:200px""alt=""img"">
                                </div>
                            </div>","121","","0","images/D78.png","","","","[""Fine"",""Coarse""]"
"","","","","","html-slider-response","125","3427067","0.0-121.0","fkzvrgn55e","NaN","<div style=""width:500px;"">
                                <p style=""font-size:50px; font-weight:bold;""
                                ></p>
                                <div style=""width:240px; margin: auto;"">
                                    <img src=""images/D74.png"" style= ""width:200px""alt=""img"">
                                </div>
                            </div>","121","","0","images/D74.png","","","","[""Fine"",""Coarse""]"
"","","","","","html-slider-response","126","3427684","0.0-122.0","fkzvrgn55e","NaN","<div style=""width:500px;"">
                                <p style=""font-size:50px; font-weight:bold;""
                                ></p>
                                <div style=""width:240px; margin: auto;"">
                                    <img src=""images/D9.png"" style= ""width:200px""alt=""img"">
                                </div>
                            </div>","121","","0","images/D9.png","","","","[""Fine"",""Coarse""]"
"","","","","","html-slider-response","127","3428513","0.0-123.0","fkzvrgn55e","NaN","<div style=""width:500px;"">
                                <p style=""font-size:50px; font-weight:bold;""
                                ></p>
                                <div style=""width:240px; margin: auto;"">
                                    <img src=""images/D83.png"" style= ""width:200px""alt=""img"">
                                </div>
                            </div>","121","","0","images/D83.png","","","","[""Fine"",""Coarse""]"
"","","","","","html-slider-response","128","3429120","0.0-124.0","fkzvrgn55e","NaN","<div style=""width:500px;"">
                                <p style=""font-size:50px; font-weight:bold;""
                                ></p>
                                <div style=""width:240px; margin: auto;"">
                                    <img src=""images/D68.png"" style= ""width:200px""alt=""img"">
                                </div>
                            </div>","121","","0","images/D68.png","","","","[""Fine"",""Coarse""]"
"","","","","","html-slider-response","129","3429817","0.0-125.0","fkzvrgn55e","NaN","<div style=""width:500px;"">
                                <p style=""font-size:50px; font-weight:bold;""
                                ></p>
                                <div style=""width:240px; margin: auto;"">
                                    <img src=""images/D101.png"" style= ""width:200px""alt=""img"">
                                </div>
                            </div>","121","","0","images/D101.png","","","","[""Fine"",""Coarse""]"
"","","","","","html-slider-response","130","3430466","0.0-126.0","fkzvrgn55e","NaN","<div style=""width:500px;"">
                                <p style=""font-size:50px; font-weight:bold;""
                                ></p>
                                <div style=""width:240px; margin: auto;"">
                                    <img src=""images/D35.png"" style= ""width:200px""alt=""img"">
                                </div>
                            </div>","121","","0","images/D35.png","","","","[""Fine"",""Coarse""]"
"","","","","","html-slider-response","131","3431089","0.0-127.0","fkzvrgn55e","NaN","<div style=""width:500px;"">
                                <p style=""font-size:50px; font-weight:bold;""
                                ></p>
                                <div style=""width:240px; margin: auto;"">
                                    <img src=""images/D29.png"" style= ""width:200px""alt=""img"">
                                </div>
                            </div>","121","","0","images/D29.png","","","","[""Fine"",""Coarse""]"
"","","","","","html-slider-response","132","3431713","0.0-128.0","fkzvrgn55e","NaN","<div style=""width:500px;"">
                                <p style=""font-size:50px; font-weight:bold;""
                                ></p>
                                <div style=""width:240px; margin: auto;"">
                                    <img src=""images/D8.png"" style= ""width:200px""alt=""img"">
                                </div>
                            </div>","121","","0","images/D8.png","","","","[""Fine"",""Coarse""]"
"","","","","","html-slider-response","133","3432460","0.0-129.0","fkzvrgn55e","NaN","<div style=""width:500px;"">
                                <p style=""font-size:50px; font-weight:bold;""
                                ></p>
                                <div style=""width:240px; margin: auto;"">
                                    <img src=""images/D3.png"" style= ""width:200px""alt=""img"">
                                </div>
                            </div>","121","","0","images/D3.png","","","","[""Fine"",""Coarse""]"
"","","","","","html-slider-response","134","3433247","0.0-130.0","fkzvrgn55e","NaN","<div style=""width:500px;"">
                                <p style=""font-size:50px; font-weight:bold;""
                                ></p>
                                <div style=""width:240px; margin: auto;"">
                                    <img src=""images/D85.png"" style= ""width:200px""alt=""img"">
                                </div>
                            </div>","121","","0","images/D85.png","","","","[""Fine"",""Coarse""]"
"","","","","","html-slider-response","135","3433995","0.0-131.0","fkzvrgn55e","NaN","<div style=""width:500px;"">
                                <p style=""font-size:50px; font-weight:bold;""
                                ></p>
                                <div style=""width:240px; margin: auto;"">
                                    <img src=""images/D105.png"" style= ""width:200px""alt=""img"">
                                </div>
                            </div>","121","","0","images/D105.png","","","","[""Fine"",""Coarse""]"
"","","","","","html-slider-response","136","3434792","0.0-132.0","fkzvrgn55e","NaN","<div style=""width:500px;"">
                                <p style=""font-size:50px; font-weight:bold;""
                                ></p>
                                <div style=""width:240px; margin: auto;"">
                                    <img src=""images/D95.png"" style= ""width:200px""alt=""img"">
                                </div>
                            </div>","121","","0","images/D95.png","","","","[""Fine"",""Coarse""]"
"","","","","","html-slider-response","137","3435399","0.0-133.0","fkzvrgn55e","NaN","<div style=""width:500px;"">
                                <p style=""font-size:50px; font-weight:bold;""
                                ></p>
                                <div style=""width:240px; margin: auto;"">
                                    <img src=""images/D57.png"" style= ""width:200px""alt=""img"">
                                </div>
                            </div>","121","","0","images/D57.png","","","","[""Fine"",""Coarse""]"
"","","","","","html-slider-response","138","3436187","0.0-134.0","fkzvrgn55e","NaN","<div style=""width:500px;"">
                                <p style=""font-size:50px; font-weight:bold;""
                                ></p>
                                <div style=""width:240px; margin: auto;"">
                                    <img src=""images/D96.png"" style= ""width:200px""alt=""img"">
                                </div>
                            </div>","121","","0","images/D96.png","","","","[""Fine"",""Coarse""]"
"","","","","","html-slider-response","139","3436933","0.0-135.0","fkzvrgn55e","NaN","<div style=""width:500px;"">
                                <p style=""font-size:50px; font-weight:bold;""
                                ></p>
                                <div style=""width:240px; margin: auto;"">
                                    <img src=""images/D94.png"" style= ""width:200px""alt=""img"">
                                </div>
                            </div>","121","","0","images/D94.png","","","","[""Fine"",""Coarse""]"
"","","","","","html-slider-response","140","3437533","0.0-136.0","fkzvrgn55e","NaN","<div style=""width:500px;"">
                                <p style=""font-size:50px; font-weight:bold;""
                                ></p>
                                <div style=""width:240px; margin: auto;"">
                                    <img src=""images/D77.png"" style= ""width:200px""alt=""img"">
                                </div>
                            </div>","121","","0","images/D77.png","","","","[""Fine"",""Coarse""]"
"","","","","","html-slider-response","141","3438189","0.0-137.0","fkzvrgn55e","NaN","<div style=""width:500px;"">
                                <p style=""font-size:50px; font-weight:bold;""
                                ></p>
                                <div style=""width:240px; margin: auto;"">
                                    <img src=""images/D84.png"" style= ""width:200px""alt=""img"">
                                </div>
                            </div>","121","","0","images/D84.png","","","","[""Fine"",""Coarse""]"
"","","","","","html-slider-response","142","3438854","0.0-138.0","fkzvrgn55e","NaN","<div style=""width:500px;"">
                                <p style=""font-size:50px; font-weight:bold;""
                                ></p>
                                <div style=""width:240px; margin: auto;"">
                                    <img src=""images/D64.png"" style= ""width:200px""alt=""img"">
                                </div>
                            </div>","121","","0","images/D64.png","","","","[""Fine"",""Coarse""]"
"","","","","","html-slider-response","143","3439790","0.0-139.0","fkzvrgn55e","NaN","<div style=""width:500px;"">
                                <p style=""font-size:50px; font-weight:bold;""
                                ></p>
                                <div style=""width:240px; margin: auto;"">
                                    <img src=""images/D106.png"" style= ""width:200px""alt=""img"">
                                </div>
                            </div>","121","","0","images/D106.png","","","","[""Fine"",""Coarse""]"
"","","","","","html-button-response","144","3443308","0.0-140.0","fkzvrgn55e","3016","You have completed the second block of trials out of six. Please click 'Continue' when you are ready proceed.","0","","","","","","",""
"","","","","","html-button-response","145","3444112","0.0-141.0","fkzvrgn55e","803","In the following trials, you will be asked to rate textures on the scale <b>Non-Random</b> versus <b>Random</b>. Please click 'Continue' when you are ready proceed.","0","","","","","","",""
"","","","","","html-slider-response","146","3445141","0.0-142.0","fkzvrgn55e","NaN","<div style=""width:500px;"">
                                <p style=""font-size:50px; font-weight:bold;""
                                ></p>
                                <div style=""width:240px; margin: auto;"">
                                    <img src=""images/D46.png"" style= ""width:200px""alt=""img"">
                                </div>
                            </div>","68","","0","images/D46.png","","","","[""Non-random"",""Random""]"
"","","","","","html-slider-response","147","3445806","0.0-143.0","fkzvrgn55e","NaN","<div style=""width:500px;"">
                                <p style=""font-size:50px; font-weight:bold;""
                                ></p>
                                <div style=""width:240px; margin: auto;"">
                                    <img src=""images/D103.png"" style= ""width:200px""alt=""img"">
                                </div>
                            </div>","68","","0","images/D103.png","","","","[""Non-random"",""Random""]"
"","","","","","html-slider-response","148","3446520","0.0-144.0","fkzvrgn55e","NaN","<div style=""width:500px;"">
                                <p style=""font-size:50px; font-weight:bold;""
                                ></p>
                                <div style=""width:240px; margin: auto;"">
                                    <img src=""images/D47.png"" style= ""width:200px""alt=""img"">
                                </div>
                            </div>","68","","0","images/D47.png","","","","[""Non-random"",""Random""]"
"","","","","","html-slider-response","149","3447274","0.0-145.0","fkzvrgn55e","NaN","<div style=""width:500px;"">
                                <p style=""font-size:50px; font-weight:bold;""
                                ></p>
                                <div style=""width:240px; margin: auto;"">
                                    <img src=""images/D55.png"" style= ""width:200px""alt=""img"">
                                </div>
                            </div>","68","","0","images/D55.png","","","","[""Non-random"",""Random""]"
"","","","","","html-slider-response","150","3448235","0.0-146.0","fkzvrgn55e","NaN","<div style=""width:500px;"">
                                <p style=""font-size:50px; font-weight:bold;""
                                ></p>
                                <div style=""width:240px; margin: auto;"">
                                    <img src=""images/D79.png"" style= ""width:200px""alt=""img"">
                                </div>
                            </div>","69","","0","images/D79.png","","","","[""Non-random"",""Random""]"
"","","","","","html-slider-response","151","3448843","0.0-147.0","fkzvrgn55e","NaN","<div style=""width:500px;"">
                                <p style=""font-size:50px; font-weight:bold;""
                                ></p>
                                <div style=""width:240px; margin: auto;"">
                                    <img src=""images/D102.png"" style= ""width:200px""alt=""img"">
                                </div>
                            </div>","69","","0","images/D102.png","","","","[""Non-random"",""Random""]"
"","","","","","html-slider-response","152","3449524","0.0-148.0","fkzvrgn55e","NaN","<div style=""width:500px;"">
                                <p style=""font-size:50px; font-weight:bold;""
                                ></p>
                                <div style=""width:240px; margin: auto;"">
                                    <img src=""images/D17.png"" style= ""width:200px""alt=""img"">
                                </div>
                            </div>","69","","0","images/D17.png","","","","[""Non-random"",""Random""]"
"","","","","","html-slider-response","153","3450345","0.0-149.0","fkzvrgn55e","NaN","<div style=""width:500px;"">
                                <p style=""font-size:50px; font-weight:bold;""
                                ></p>
                                <div style=""width:240px; margin: auto;"">
                                    <img src=""images/D18.png"" style= ""width:200px""alt=""img"">
                                </div>
                            </div>","69","","0","images/D18.png","","","","[""Non-random"",""Random""]"
"","","","","","html-slider-response","154","3451470","0.0-150.0","fkzvrgn55e","NaN","<div style=""width:500px;"">
                                <p style=""font-size:50px; font-weight:bold;""
                                ></p>
                                <div style=""width:240px; margin: auto;"">
                                    <img src=""images/D104.png"" style= ""width:200px""alt=""img"">
                                </div>
                            </div>","69","","0","images/D104.png","","","","[""Non-random"",""Random""]"
"","","","","","html-slider-response","155","3452282","0.0-151.0","fkzvrgn55e","NaN","<div style=""width:500px;"">
                                <p style=""font-size:50px; font-weight:bold;""
                                ></p>
                                <div style=""width:240px; margin: auto;"">
                                    <img src=""images/D49.png"" style= ""width:200px""alt=""img"">
                                </div>
                            </div>","69","","0","images/D49.png","","","","[""Non-random"",""Random""]"
"","","","","","html-slider-response","156","3453456","0.0-152.0","fkzvrgn55e","NaN","<div style=""width:500px;"">
                                <p style=""font-size:50px; font-weight:bold;""
                                ></p>
                                <div style=""width:240px; margin: auto;"">
                                    <img src=""images/D80.png"" style= ""width:200px""alt=""img"">
                                </div>
                            </div>","69","","0","images/D80.png","","","","[""Non-random"",""Random""]"
"","","","","","html-slider-response","157","3454219","0.0-153.0","fkzvrgn55e","NaN","<div style=""width:500px;"">
                                <p style=""font-size:50px; font-weight:bold;""
                                ></p>
                                <div style=""width:240px; margin: auto;"">
                                    <img src=""images/D52.png"" style= ""width:200px""alt=""img"">
                                </div>
                            </div>","69","","0","images/D52.png","","","","[""Non-random"",""Random""]"
"","","","","","html-slider-response","158","3454973","0.0-154.0","fkzvrgn55e","NaN","<div style=""width:500px;"">
                                <p style=""font-size:50px; font-weight:bold;""
                                ></p>
                                <div style=""width:240px; margin: auto;"">
                                    <img src=""images/D21.png"" style= ""width:200px""alt=""img"">
                                </div>
                            </div>","69","","0","images/D21.png","","","","[""Non-random"",""Random""]"
"","","","","","html-slider-response","159","3455696","0.0-155.0","fkzvrgn55e","NaN","<div style=""width:500px;"">
                                <p style=""font-size:50px; font-weight:bold;""
                                ></p>
                                <div style=""width:240px; margin: auto;"">
                                    <img src=""images/D34.png"" style= ""width:200px""alt=""img"">
                                </div>
                            </div>","69","","0","images/D34.png","","","","[""Non-random"",""Random""]"
"","","","","","html-slider-response","160","3456443","0.0-156.0","fkzvrgn55e","NaN","<div style=""width:500px;"">
                                <p style=""font-size:50px; font-weight:bold;""
                                ></p>
                                <div style=""width:240px; margin: auto;"">
                                    <img src=""images/D111.png"" style= ""width:200px""alt=""img"">
                                </div>
                            </div>","69","","0","images/D111.png","","","","[""Non-random"",""Random""]"
"","","","","","html-slider-response","161","3457665","0.0-157.0","fkzvrgn55e","NaN","<div style=""width:500px;"">
                                <p style=""font-size:50px; font-weight:bold;""
                                ></p>
                                <div style=""width:240px; margin: auto;"">
                                    <img src=""images/D87.png"" style= ""width:200px""alt=""img"">
                                </div>
                            </div>","69","","0","images/D87.png","","","","[""Non-random"",""Random""]"
"","","","","","html-slider-response","162","3458355","0.0-158.0","fkzvrgn55e","NaN","<div style=""width:500px;"">
                                <p style=""font-size:50px; font-weight:bold;""
                                ></p>
                                <div style=""width:240px; margin: auto;"">
                                    <img src=""images/D6.png"" style= ""width:200px""alt=""img"">
                                </div>
                            </div>","69","","0","images/D6.png","","","","[""Non-random"",""Random""]"
"","","","","","html-slider-response","163","3459514","0.0-159.0","fkzvrgn55e","NaN","<div style=""width:500px;"">
                                <p style=""font-size:50px; font-weight:bold;""
                                ></p>
                                <div style=""width:240px; margin: auto;"">
                                    <img src=""images/D24.png"" style= ""width:200px""alt=""img"">
                                </div>
                            </div>","68","","0","images/D24.png","","","","[""Non-random"",""Random""]"
"","","","","","html-slider-response","164","3460341","0.0-160.0","fkzvrgn55e","NaN","<div style=""width:500px;"">
                                <p style=""font-size:50px; font-weight:bold;""
                                ></p>
                                <div style=""width:240px; margin: auto;"">
                                    <img src=""images/D26.png"" style= ""width:200px""alt=""img"">
                                </div>
                            </div>","68","","0","images/D26.png","","","","[""Non-random"",""Random""]"
"","","","","","html-slider-response","165","3461179","0.0-161.0","fkzvrgn55e","NaN","<div style=""width:500px;"">
                                <p style=""font-size:50px; font-weight:bold;""
                                ></p>
                                <div style=""width:240px; margin: auto;"">
                                    <img src=""images/D48.png"" style= ""width:200px""alt=""img"">
                                </div>
                            </div>","68","","0","images/D48.png","","","","[""Non-random"",""Random""]"
"","","","","","html-slider-response","166","3461901","0.0-162.0","fkzvrgn55e","NaN","<div style=""width:500px;"">
                                <p style=""font-size:50px; font-weight:bold;""
                                ></p>
                                <div style=""width:240px; margin: auto;"">
                                    <img src=""images/D51.png"" style= ""width:200px""alt=""img"">
                                </div>
                            </div>","69","","0","images/D51.png","","","","[""Non-random"",""Random""]"
"","","","","","html-slider-response","167","3462861","0.0-163.0","fkzvrgn55e","NaN","<div style=""width:500px;"">
                                <p style=""font-size:50px; font-weight:bold;""
                                ></p>
                                <div style=""width:240px; margin: auto;"">
                                    <img src=""images/D20.png"" style= ""width:200px""alt=""img"">
                                </div>
                            </div>","69","","0","images/D20.png","","","","[""Non-random"",""Random""]"
"","","","","","html-slider-response","168","3463567","0.0-164.0","fkzvrgn55e","NaN","<div style=""width:500px;"">
                                <p style=""font-size:50px; font-weight:bold;""
                                ></p>
                                <div style=""width:240px; margin: auto;"">
                                    <img src=""images/D65.png"" style= ""width:200px""alt=""img"">
                                </div>
                            </div>","69","","0","images/D65.png","","","","[""Non-random"",""Random""]"
"","","","","","html-slider-response","169","3464355","0.0-165.0","fkzvrgn55e","NaN","<div style=""width:500px;"">
                                <p style=""font-size:50px; font-weight:bold;""
                                ></p>
                                <div style=""width:240px; margin: auto;"">
                                    <img src=""images/D66.png"" style= ""width:200px""alt=""img"">
                                </div>
                            </div>","69","","0","images/D66.png","","","","[""Non-random"",""Random""]"
"","","","","","html-slider-response","170","3465136","0.0-166.0","fkzvrgn55e","NaN","<div style=""width:500px;"">
                                <p style=""font-size:50px; font-weight:bold;""
                                ></p>
                                <div style=""width:240px; margin: auto;"">
                                    <img src=""images/D56.png"" style= ""width:200px""alt=""img"">
                                </div>
                            </div>","69","","0","images/D56.png","","","","[""Non-random"",""Random""]"
"","","","","","html-slider-response","171","3465956","0.0-167.0","fkzvrgn55e","NaN","<div style=""width:500px;"">
                                <p style=""font-size:50px; font-weight:bold;""
                                ></p>
                                <div style=""width:240px; margin: auto;"">
                                    <img src=""images/D92.png"" style= ""width:200px""alt=""img"">
                                </div>
                            </div>","69","","0","images/D92.png","","","","[""Non-random"",""Random""]"
"","","","","","html-slider-response","172","3467614","0.0-168.0","fkzvrgn55e","NaN","<div style=""width:500px;"">
                                <p style=""font-size:50px; font-weight:bold;""
                                ></p>
                                <div style=""width:240px; margin: auto;"">
                                    <img src=""images/D36.png"" style= ""width:200px""alt=""img"">
                                </div>
                            </div>","70","","0","images/D36.png","","","","[""Non-random"",""Random""]"
"","","","","","html-slider-response","173","3468640","0.0-169.0","fkzvrgn55e","NaN","<div style=""width:500px;"">
                                <p style=""font-size:50px; font-weight:bold;""
                                ></p>
                                <div style=""width:240px; margin: auto;"">
                                    <img src=""images/D82.png"" style= ""width:200px""alt=""img"">
                                </div>
                            </div>","70","","0","images/D82.png","","","","[""Non-random"",""Random""]"
"","","","","","html-slider-response","174","3469429","0.0-170.0","fkzvrgn55e","NaN","<div style=""width:500px;"">
                                <p style=""font-size:50px; font-weight:bold;""
                                ></p>
                                <div style=""width:240px; margin: auto;"">
                                    <img src=""images/D53.png"" style= ""width:200px""alt=""img"">
                                </div>
                            </div>","70","","0","images/D53.png","","","","[""Non-random"",""Random""]"
"","","","","","html-slider-response","175","3470060","0.0-171.0","fkzvrgn55e","NaN","<div style=""width:500px;"">
                                <p style=""font-size:50px; font-weight:bold;""
                                ></p>
                                <div style=""width:240px; margin: auto;"">
                                    <img src=""images/D11.png"" style= ""width:200px""alt=""img"">
                                </div>
                            </div>","70","","0","images/D11.png","","","","[""Non-random"",""Random""]"
"","","","","","html-slider-response","176","3470709","0.0-172.0","fkzvrgn55e","NaN","<div style=""width:500px;"">
                                <p style=""font-size:50px; font-weight:bold;""
                                ></p>
                                <div style=""width:240px; margin: auto;"">
                                    <img src=""images/D32.png"" style= ""width:200px""alt=""img"">
                                </div>
                            </div>","70","","0","images/D32.png","","","","[""Non-random"",""Random""]"
"","","","","","html-slider-response","177","3471340","0.0-173.0","fkzvrgn55e","NaN","<div style=""width:500px;"">
                                <p style=""font-size:50px; font-weight:bold;""
                                ></p>
                                <div style=""width:240px; margin: auto;"">
                                    <img src=""images/D37.png"" style= ""width:200px""alt=""img"">
                                </div>
                            </div>","70","","0","images/D37.png","","","","[""Non-random"",""Random""]"
"","","","","","html-slider-response","178","3472014","0.0-174.0","fkzvrgn55e","NaN","<div style=""width:500px;"">
                                <p style=""font-size:50px; font-weight:bold;""
                                ></p>
                                <div style=""width:240px; margin: auto;"">
                                    <img src=""images/D16.png"" style= ""width:200px""alt=""img"">
                                </div>
                            </div>","70","","0","images/D16.png","","","","[""Non-random"",""Random""]"
"","","","","","html-slider-response","179","3472777","0.0-175.0","fkzvrgn55e","NaN","<div style=""width:500px;"">
                                <p style=""font-size:50px; font-weight:bold;""
                                ></p>
                                <div style=""width:240px; margin: auto;"">
                                    <img src=""images/D75.png"" style= ""width:200px""alt=""img"">
                                </div>
                            </div>","70","","0","images/D75.png","","","","[""Non-random"",""Random""]"
"","","","","","html-slider-response","180","3473778","0.0-176.0","fkzvrgn55e","NaN","<div style=""width:500px;"">
                                <p style=""font-size:50px; font-weight:bold;""
                                ></p>
                                <div style=""width:240px; margin: auto;"">
                                    <img src=""images/D19.png"" style= ""width:200px""alt=""img"">
                                </div>
                            </div>","71","","0","images/D19.png","","","","[""Non-random"",""Random""]"
"","","","","","html-slider-response","181","3474730","0.0-177.0","fkzvrgn55e","NaN","<div style=""width:500px;"">
                                <p style=""font-size:50px; font-weight:bold;""
                                ></p>
                                <div style=""width:240px; margin: auto;"">
                                    <img src=""images/D4.png"" style= ""width:200px""alt=""img"">
                                </div>
                            </div>","71","","0","images/D4.png","","","","[""Non-random"",""Random""]"
"","","","","","html-slider-response","182","3475444","0.0-178.0","fkzvrgn55e","NaN","<div style=""width:500px;"">
                                <p style=""font-size:50px; font-weight:bold;""
                                ></p>
                                <div style=""width:240px; margin: auto;"">
                                    <img src=""images/D76.png"" style= ""width:200px""alt=""img"">
                                </div>
                            </div>","71","","0","images/D76.png","","","","[""Non-random"",""Random""]"
"","","","","","html-slider-response","183","3476200","0.0-179.0","fkzvrgn55e","NaN","<div style=""width:500px;"">
                                <p style=""font-size:50px; font-weight:bold;""
                                ></p>
                                <div style=""width:240px; margin: auto;"">
                                    <img src=""images/D81.png"" style= ""width:200px""alt=""img"">
                                </div>
                            </div>","71","","0","images/D81.png","","","","[""Non-random"",""Random""]"
"","","","","","html-slider-response","184","3476840","0.0-180.0","fkzvrgn55e","NaN","<div style=""width:500px;"">
                                <p style=""font-size:50px; font-weight:bold;""
                                ></p>
                                <div style=""width:240px; margin: auto;"">
                                    <img src=""images/D25.png"" style= ""width:200px""alt=""img"">
                                </div>
                            </div>","71","","0","images/D25.png","","","","[""Non-random"",""Random""]"
"","","","","","html-slider-response","185","3477505","0.0-181.0","fkzvrgn55e","NaN","<div style=""width:500px;"">
                                <p style=""font-size:50px; font-weight:bold;""
                                ></p>
                                <div style=""width:240px; margin: auto;"">
                                    <img src=""images/D14.png"" style= ""width:200px""alt=""img"">
                                </div>
                            </div>","71","","0","images/D14.png","","","","[""Non-random"",""Random""]"
"","","","","","html-slider-response","186","3478203","0.0-182.0","fkzvrgn55e","NaN","<div style=""width:500px;"">
                                <p style=""font-size:50px; font-weight:bold;""
                                ></p>
                                <div style=""width:240px; margin: auto;"">
                                    <img src=""images/D1.png"" style= ""width:200px""alt=""img"">
                                </div>
