"success","timeout","failed_images","failed_audio","failed_video","trial_type","trial_index","time_elapsed","internal_node_id","subject_id","rt","stimulus","response","question_order","slider_start","image_path","practiceTrial","practiceTrialNum","correct","slider_labels"
"true","false","[]","[]","[]","preload","0","886","0.0-0.0","fmh9u539fx","","","","","","","","","",""
"","","","","","html-button-response","1","7355","0.0-1.0","fmh9u539fx","6467","<div style='text-align:center; font-size:20px; line-height:25px; width: 1200px;'>
                Welcome to our experiment! <br>
                <br>At the bottom of this screen, you will see a button that says 'Begin Experiment.
                <br>Please only click that button when you are ready to complete the 25 minute experiment in one sitting. <br>
                <br> Once you click that button, it will not be possible to restart the experiment. <br><br>","0","","","","","","",""
"true","","","","","fullscreen","2","10208","0.0-2.0","fmh9u539fx","1844","","","","","","","","",""
"","","","","","survey-multi-select","3","49714","0.0-3.0","fmh9u539fx","39501","","{""Consent"":[""<strong>I consent</strong>""]}","[0]","","","","","",""
"","","","","","html-button-response","4","51918","0.0-4.0","fmh9u539fx","2202","Welcome! <p> This experiment involves two parts: demographic information, followed by the experimental task.<p> It will take about 25 minutes to complete both parts.","0","","","","","","",""
"","","","","","survey-text","5","59638","0.0-5.0","fmh9u539fx","7714","","{""Age"":""19"",""Gender"":""Female"",""Race/ethnicity"":""White""}","","","","","","",""
"","","","","","html-slider-response","6","92434","0.0-6.0","fmh9u539fx","32802","
                <div style='text-align:center; height: auto; margin-left=-100px; margin-bottom: -20px; font-size:20px; line-height:5px; width: 1200px;'>
                    <br>During this experiment, you will see a series of textures, one at a time, like the ones below: 
                </div>
                    <br>
                    <br>
                    <img src=""anchoring_visual_textures.png"" alt=""img"" style=""max-width:1200px; margin-left: -10px;"">
                </div>
                <div style=""clear: both;""></div>
                </div>
                    <div style='text-align:center; margin-left=-100px; font-size:20px; line-height:20px; width: 1200px; margin-top: -50px;'>
                    
                    <br> For each texture, you will be asked to rate where you think it falls on each of the response scales with the following endpoints:
                    </div>
                            <div style=""text-align: center; width: 1400px; "">
                                <p style=""font-size:20px; line-height:5px; ""><b>Stripey</b> versus <b>Blobby</b></p>
                                <p style=""font-size:20px; line-height:5px; ""><b>Rectangular</b> versus <b>Rounded</b></p>
                                <p style=""font-size:20px;line-height:5px;""><b>Fine</b> versus <b>Coarse</b></p>
                                <p style=""font-size:20px;line-height:5px; ""><b>Smooth</b> versus <b>Rough</b></p>
                                <p style=""font-size:20px;line-height:5px; ""><b>Non-Random</b> versus <b>Random</b></p>
                                <p style=""font-size:20px;line-height:5px;""><b>Soft</b> versus <b>Hard</b></p>
                            </div>
                            <div style='text-align:center; font-size:20px; line-height:20px; width: 1400px;'>
                    
                    Each trial will include one texture and one response scale. You will be asked to make your rating by sliding the cursor along a slider response scale like the one below.
                    <br><br> Before beginning, please look at the textures and scales. For each scale, think about the texture you associate most with the left endpoint. When you see that texture for that response scale, please click near the left of the scale.
                    <br><br> Now, please think about the texture you associate most with the right endpoint of each scale. When you see that texture for that response scale, please click near the right of the scale. 
                    <br><br> If you think a texture is not strongly associated with either endpoint of the scale, please click near the midpoint of the scale. Please use the full range of the scale. 
                    <br><br> You will be asked to rate each texture for a given scale before moving on to the next scale.
                    <br><br> Please press the 'Continue' button for instructions on how to use the slider.                     <br><br>
                ","null","","0","visual_textures_anchoring.png","true","","",""
"","","","","","html-button-response","7","100878","0.0-7.0","fmh9u539fx","8441","<div style=""width:1200px; margin-top:-150px;""><p style=""text-align:center; font-size:24px;"">To move the slider, click and drag your cursor to the location of the scale where you would like to make your rating and then let go. <br><br> When you let go of the slider, your response will be recorded and the next trial will begin. <br><br><br>
                We are interested in your initial impressions of each texture and scale, so please go with your first intuition. <br><br>
                Before you begin the experiment, there will be four training trials for you to practice using the scale. <br><br><br><br></div>
                <div style=""width:1200px;""><p style=""text-align:center; font-size:20px;"">When you are ready to start the training trials, please click ""Continue"".</p></div>","0","","","","","","",""
"","","","","","html-slider-response","8","103571","0.0-8.0-0.0","fmh9u539fx","NaN","<div style=""width:500px;"">
                                <p style=""font-size:25px;"">Please move the slider all the way to the <br> right endpoint of the scale</p>

                                </div>
                            </div>","198","","0","","true","0","true",""
"","","","","","html-button-response","9","105854","0.0-8.0-1.0","fmh9u539fx","1778","<p align='center'><b>Good job!</b> Click on 'Continue' to proceed.</p>","0","","","","","","",""
"","","","","","html-slider-response","10","107619","0.0-9.0-0.0","fmh9u539fx","NaN","<div style=""width:500px;"">
                                <p style=""font-size:25px;"">Please move the slider all the way to the <br> left endpoint of the scale</p>

                                </div>
                            </div>","-196","","0","","true","1","true",""
"","","","","","html-button-response","11","109167","0.0-9.0-1.0","fmh9u539fx","1043","<p align='center'><b>Good job!</b> Click on 'Continue' to proceed.</p>","0","","","","","","",""
"","","","","","html-slider-response","12","111233","0.0-10.0-0.0","fmh9u539fx","NaN","<div style=""width:500px;"">
                                <p style=""font-size:25px;"">Please move the slider halfway between the center and right endpoint of the scale</p>

                                </div>
                            </div>","102","","0","","true","2","true",""
"","","","","","html-button-response","13","113248","0.0-10.0-1.0","fmh9u539fx","1511","<p align='center'><b>Good job!</b> Click on 'Continue' to proceed.</p>","0","","","","","","",""
"","","","","","html-slider-response","14","115391","0.0-11.0-0.0","fmh9u539fx","NaN","<div style=""width:500px;"">
                                <p style=""font-size:25px;"">Please move the slider halfway between the center and left endpoint of the scale</p>

                                </div>
                            </div>","-107","","0","","true","3","true",""
"","","","","","html-button-response","15","117095","0.0-11.0-1.0","fmh9u539fx","1200","<p align='center'><b>Good job!</b> Click on 'Continue' to proceed.</p>","0","","","","","","",""
"","","","","","html-button-response","16","119775","0.0-12.0","fmh9u539fx","2679","<div style=""width:800px; margin-top:-300px;""><p style=""text-align:center; font-size:22px; line-height:25px;""""> Great job! You've completed the practice trials.</div>
                     <div style=""width:800px; margin-top:-20px;""><p style=""text-align:center""><br><br> In the following trials, you will be asked to rate textures on each scale one-by-one. <br> You will be given opportunities to take breaks when you have completed each block of trials. There are six total blocks of trials. <br><br> Please click continue to begin the main task.<br><br><br> </div>","0","","","","","","",""
"","","","","","html-button-response","17","121677","0.0-13.0","fmh9u539fx","1900","In the following trials, you will be asked to rate textures on the scale <b>Stripey</b> versus <b>Blobby</b>. Please click 'Continue' when you are ready proceed.","0","","","","","","",""
"","","","","","html-slider-response","18","125105","0.0-14.0","fmh9u539fx","NaN","<div style=""width:500px;"">
                                <p style=""font-size:50px; font-weight:bold;""
                                ></p>
                                <div style=""width:240px; margin: auto;"">
                                    <img src=""images/D103.png"" style= ""width:200px""alt=""img"">
                                </div>
                            </div>","-148","","0","images/D103.png","","","","[""Stripey"",""Blobby""]"
"","","","","","html-slider-response","19","129810","0.0-15.0","fmh9u539fx","NaN","<div style=""width:500px;"">
                                <p style=""font-size:50px; font-weight:bold;""
                                ></p>
                                <div style=""width:240px; margin: auto;"">
                                    <img src=""images/D83.png"" style= ""width:200px""alt=""img"">
                                </div>
                            </div>","-182","","0","images/D83.png","","","","[""Stripey"",""Blobby""]"
"","","","","","html-slider-response","20","134069","0.0-16.0","fmh9u539fx","NaN","<div style=""width:500px;"">
                                <p style=""font-size:50px; font-weight:bold;""
                                ></p>
                                <div style=""width:240px; margin: auto;"">
                                    <img src=""images/D85.png"" style= ""width:200px""alt=""img"">
                                </div>
                            </div>","-120","","0","images/D85.png","","","","[""Stripey"",""Blobby""]"
"","","","","","html-slider-response","21","137171","0.0-17.0","fmh9u539fx","NaN","<div style=""width:500px;"">
                                <p style=""font-size:50px; font-weight:bold;""
                                ></p>
                                <div style=""width:240px; margin: auto;"">
                                    <img src=""images/D64.png"" style= ""width:200px""alt=""img"">
                                </div>
                            </div>","-32","","0","images/D64.png","","","","[""Stripey"",""Blobby""]"
"","","","","","html-slider-response","22","140060","0.0-18.0","fmh9u539fx","NaN","<div style=""width:500px;"">
                                <p style=""font-size:50px; font-weight:bold;""
                                ></p>
                                <div style=""width:240px; margin: auto;"">
                                    <img src=""images/D34.png"" style= ""width:200px""alt=""img"">
                                </div>
                            </div>","79","","0","images/D34.png","","","","[""Stripey"",""Blobby""]"
"","","","","","html-slider-response","23","142921","0.0-19.0","fmh9u539fx","NaN","<div style=""width:500px;"">
                                <p style=""font-size:50px; font-weight:bold;""
                                ></p>
                                <div style=""width:240px; margin: auto;"">
                                    <img src=""images/D18.png"" style= ""width:200px""alt=""img"">
                                </div>
                            </div>","-50","","0","images/D18.png","","","","[""Stripey"",""Blobby""]"
"","","","","","html-slider-response","24","145600","0.0-20.0","fmh9u539fx","NaN","<div style=""width:500px;"">
                                <p style=""font-size:50px; font-weight:bold;""
                                ></p>
                                <div style=""width:240px; margin: auto;"">
                                    <img src=""images/D55.png"" style= ""width:200px""alt=""img"">
                                </div>
                            </div>","-22","","0","images/D55.png","","","","[""Stripey"",""Blobby""]"
"","","","","","html-slider-response","25","148182","0.0-21.0","fmh9u539fx","NaN","<div style=""width:500px;"">
                                <p style=""font-size:50px; font-weight:bold;""
                                ></p>
                                <div style=""width:240px; margin: auto;"">
                                    <img src=""images/D75.png"" style= ""width:200px""alt=""img"">
                                </div>
                            </div>","107","","0","images/D75.png","","","","[""Stripey"",""Blobby""]"
"","","","","","html-slider-response","26","150468","0.0-22.0","fmh9u539fx","NaN","<div style=""width:500px;"">
                                <p style=""font-size:50px; font-weight:bold;""
                                ></p>
                                <div style=""width:240px; margin: auto;"">
                                    <img src=""images/D76.png"" style= ""width:200px""alt=""img"">
                                </div>
                            </div>","-118","","0","images/D76.png","","","","[""Stripey"",""Blobby""]"
"","","","","","html-slider-response","27","152956","0.0-23.0","fmh9u539fx","NaN","<div style=""width:500px;"">
                                <p style=""font-size:50px; font-weight:bold;""
                                ></p>
                                <div style=""width:240px; margin: auto;"">
                                    <img src=""images/D95.png"" style= ""width:200px""alt=""img"">
                                </div>
                            </div>","-55","","0","images/D95.png","","","","[""Stripey"",""Blobby""]"
"","","","","","html-slider-response","28","156248","0.0-24.0","fmh9u539fx","NaN","<div style=""width:500px;"">
                                <p style=""font-size:50px; font-weight:bold;""
                                ></p>
                                <div style=""width:240px; margin: auto;"">
                                    <img src=""images/D53.png"" style= ""width:200px""alt=""img"">
                                </div>
                            </div>","-158","","0","images/D53.png","","","","[""Stripey"",""Blobby""]"
"","","","","","html-slider-response","29","158690","0.0-25.0","fmh9u539fx","NaN","<div style=""width:500px;"">
                                <p style=""font-size:50px; font-weight:bold;""
                                ></p>
                                <div style=""width:240px; margin: auto;"">
                                    <img src=""images/D66.png"" style= ""width:200px""alt=""img"">
                                </div>
                            </div>","170","","0","images/D66.png","","","","[""Stripey"",""Blobby""]"
"","","","","","html-slider-response","30","161507","0.0-26.0","fmh9u539fx","NaN","<div style=""width:500px;"">
                                <p style=""font-size:50px; font-weight:bold;""
                                ></p>
                                <div style=""width:240px; margin: auto;"">
                                    <img src=""images/D68.png"" style= ""width:200px""alt=""img"">
                                </div>
                            </div>","-118","","0","images/D68.png","","","","[""Stripey"",""Blobby""]"
"","","","","","html-slider-response","31","163958","0.0-27.0","fmh9u539fx","NaN","<div style=""width:500px;"">
                                <p style=""font-size:50px; font-weight:bold;""
                                ></p>
                                <div style=""width:240px; margin: auto;"">
                                    <img src=""images/D51.png"" style= ""width:200px""alt=""img"">
                                </div>
                            </div>","-195","","0","images/D51.png","","","","[""Stripey"",""Blobby""]"
"","","","","","html-slider-response","32","166953","0.0-28.0","fmh9u539fx","NaN","<div style=""width:500px;"">
                                <p style=""font-size:50px; font-weight:bold;""
                                ></p>
                                <div style=""width:240px; margin: auto;"">
                                    <img src=""images/D81.png"" style= ""width:200px""alt=""img"">
                                </div>
                            </div>","14","","0","images/D81.png","","","","[""Stripey"",""Blobby""]"
"","","","","","html-slider-response","33","169345","0.0-29.0","fmh9u539fx","NaN","<div style=""width:500px;"">
                                <p style=""font-size:50px; font-weight:bold;""
                                ></p>
                                <div style=""width:240px; margin: auto;"">
                                    <img src=""images/D26.png"" style= ""width:200px""alt=""img"">
                                </div>
                            </div>","-42","","0","images/D26.png","","","","[""Stripey"",""Blobby""]"
"","","","","","html-slider-response","34","171865","0.0-30.0","fmh9u539fx","NaN","<div style=""width:500px;"">
                                <p style=""font-size:50px; font-weight:bold;""
                                ></p>
                                <div style=""width:240px; margin: auto;"">
                                    <img src=""images/D4.png"" style= ""width:200px""alt=""img"">
                                </div>
                            </div>","72","","0","images/D4.png","","","","[""Stripey"",""Blobby""]"
"","","","","","html-slider-response","35","174478","0.0-31.0","fmh9u539fx","NaN","<div style=""width:500px;"">
                                <p style=""font-size:50px; font-weight:bold;""
                                ></p>
                                <div style=""width:240px; margin: auto;"">
                                    <img src=""images/D49.png"" style= ""width:200px""alt=""img"">
                                </div>
                            </div>","-139","","0","images/D49.png","","","","[""Stripey"",""Blobby""]"
"","","","","","html-slider-response","36","177052","0.0-32.0","fmh9u539fx","NaN","<div style=""width:500px;"">
                                <p style=""font-size:50px; font-weight:bold;""
                                ></p>
                                <div style=""width:240px; margin: auto;"">
                                    <img src=""images/D52.png"" style= ""width:200px""alt=""img"">
                                </div>
                            </div>","52","","0","images/D52.png","","","","[""Stripey"",""Blobby""]"
"","","","","","html-slider-response","37","179378","0.0-33.0","fmh9u539fx","NaN","<div style=""width:500px;"">
                                <p style=""font-size:50px; font-weight:bold;""
                                ></p>
                                <div style=""width:240px; margin: auto;"">
                                    <img src=""images/D46.png"" style= ""width:200px""alt=""img"">
                                </div>
                            </div>","98","","0","images/D46.png","","","","[""Stripey"",""Blobby""]"
"","","","","","html-slider-response","38","182604","0.0-34.0","fmh9u539fx","NaN","<div style=""width:500px;"">
                                <p style=""font-size:50px; font-weight:bold;""
                                ></p>
                                <div style=""width:240px; margin: auto;"">
                                    <img src=""images/D94.png"" style= ""width:200px""alt=""img"">
                                </div>
                            </div>","-83","","0","images/D94.png","","","","[""Stripey"",""Blobby""]"
"","","","","","html-slider-response","39","185601","0.0-35.0","fmh9u539fx","NaN","<div style=""width:500px;"">
                                <p style=""font-size:50px; font-weight:bold;""
                                ></p>
                                <div style=""width:240px; margin: auto;"">
                                    <img src=""images/D87.png"" style= ""width:200px""alt=""img"">
                                </div>
                            </div>","42","","0","images/D87.png","","","","[""Stripey"",""Blobby""]"
"","","","","","html-slider-response","40","188027","0.0-36.0","fmh9u539fx","NaN","<div style=""width:500px;"">
                                <p style=""font-size:50px; font-weight:bold;""
                                ></p>
                                <div style=""width:240px; margin: auto;"">
                                    <img src=""images/D111.png"" style= ""width:200px""alt=""img"">
                                </div>
                            </div>","88","","0","images/D111.png","","","","[""Stripey"",""Blobby""]"
"","","","","","html-slider-response","41","190260","0.0-37.0","fmh9u539fx","NaN","<div style=""width:500px;"">
                                <p style=""font-size:50px; font-weight:bold;""
                                ></p>
                                <div style=""width:240px; margin: auto;"">
                                    <img src=""images/D78.png"" style= ""width:200px""alt=""img"">
                                </div>
                            </div>","-42","","0","images/D78.png","","","","[""Stripey"",""Blobby""]"
"","","","","","html-slider-response","42","192687","0.0-38.0","fmh9u539fx","NaN","<div style=""width:500px;"">
                                <p style=""font-size:50px; font-weight:bold;""
                                ></p>
                                <div style=""width:240px; margin: auto;"">
                                    <img src=""images/D106.png"" style= ""width:200px""alt=""img"">
                                </div>
                            </div>","-90","","0","images/D106.png","","","","[""Stripey"",""Blobby""]"
"","","","","","html-slider-response","43","196462","0.0-39.0","fmh9u539fx","NaN","<div style=""width:500px;"">
                                <p style=""font-size:50px; font-weight:bold;""
                                ></p>
                                <div style=""width:240px; margin: auto;"">
                                    <img src=""images/D96.png"" style= ""width:200px""alt=""img"">
                                </div>
                            </div>","58","","0","images/D96.png","","","","[""Stripey"",""Blobby""]"
"","","","","","html-slider-response","44","198747","0.0-40.0","fmh9u539fx","NaN","<div style=""width:500px;"">
                                <p style=""font-size:50px; font-weight:bold;""
                                ></p>
                                <div style=""width:240px; margin: auto;"">
                                    <img src=""images/D17.png"" style= ""width:200px""alt=""img"">
                                </div>
                            </div>","-19","","0","images/D17.png","","","","[""Stripey"",""Blobby""]"
"","","","","","html-slider-response","45","201194","0.0-41.0","fmh9u539fx","NaN","<div style=""width:500px;"">
                                <p style=""font-size:50px; font-weight:bold;""
                                ></p>
                                <div style=""width:240px; margin: auto;"">
                                    <img src=""images/D3.png"" style= ""width:200px""alt=""img"">
                                </div>
                            </div>","51","","0","images/D3.png","","","","[""Stripey"",""Blobby""]"
"","","","","","html-slider-response","46","203767","0.0-42.0","fmh9u539fx","NaN","<div style=""width:500px;"">
                                <p style=""font-size:50px; font-weight:bold;""
                                ></p>
                                <div style=""width:240px; margin: auto;"">
                                    <img src=""images/D47.png"" style= ""width:200px""alt=""img"">
                                </div>
                            </div>","-44","","0","images/D47.png","","","","[""Stripey"",""Blobby""]"
"","","","","","html-slider-response","47","208154","0.0-43.0","fmh9u539fx","NaN","<div style=""width:500px;"">
                                <p style=""font-size:50px; font-weight:bold;""
                                ></p>
                                <div style=""width:240px; margin: auto;"">
                                    <img src=""images/D57.png"" style= ""width:200px""alt=""img"">
                                </div>
                            </div>","103","","0","images/D57.png","","","","[""Stripey"",""Blobby""]"
"","","","","","html-slider-response","48","210189","0.0-44.0","fmh9u539fx","NaN","<div style=""width:500px;"">
                                <p style=""font-size:50px; font-weight:bold;""
                                ></p>
                                <div style=""width:240px; margin: auto;"">
                                    <img src=""images/D36.png"" style= ""width:200px""alt=""img"">
                                </div>
                            </div>","122","","0","images/D36.png","","","","[""Stripey"",""Blobby""]"
"","","","","","html-slider-response","49","211973","0.0-45.0","fmh9u539fx","NaN","<div style=""width:500px;"">
                                <p style=""font-size:50px; font-weight:bold;""
                                ></p>
                                <div style=""width:240px; margin: auto;"">
                                    <img src=""images/D22.png"" style= ""width:200px""alt=""img"">
                                </div>
                            </div>","140","","0","images/D22.png","","","","[""Stripey"",""Blobby""]"
"","","","","","html-slider-response","50","215066","0.0-46.0","fmh9u539fx","NaN","<div style=""width:500px;"">
                                <p style=""font-size:50px; font-weight:bold;""
                                ></p>
                                <div style=""width:240px; margin: auto;"">
                                    <img src=""images/D21.png"" style= ""width:200px""alt=""img"">
                                </div>
                            </div>","-67","","0","images/D21.png","","","","[""Stripey"",""Blobby""]"
"","","","","","html-slider-response","51","217992","0.0-47.0","fmh9u539fx","NaN","<div style=""width:500px;"">
                                <p style=""font-size:50px; font-weight:bold;""
                                ></p>
                                <div style=""width:240px; margin: auto;"">
                                    <img src=""images/D65.png"" style= ""width:200px""alt=""img"">
                                </div>
                            </div>","-87","","0","images/D65.png","","","","[""Stripey"",""Blobby""]"
"","","","","","html-slider-response","52","220536","0.0-48.0","fmh9u539fx","NaN","<div style=""width:500px;"">
                                <p style=""font-size:50px; font-weight:bold;""
                                ></p>
                                <div style=""width:240px; margin: auto;"">
                                    <img src=""images/D101.png"" style= ""width:200px""alt=""img"">
                                </div>
                            </div>","105","","0","images/D101.png","","","","[""Stripey"",""Blobby""]"
"","","","","","html-slider-response","53","224688","0.0-49.0","fmh9u539fx","NaN","<div style=""width:500px;"">
                                <p style=""font-size:50px; font-weight:bold;""
                                ></p>
                                <div style=""width:240px; margin: auto;"">
                                    <img src=""images/D77.png"" style= ""width:200px""alt=""img"">
                                </div>
                            </div>","-29","","0","images/D77.png","","","","[""Stripey"",""Blobby""]"
"","","","","","html-slider-response","54","226785","0.0-50.0","fmh9u539fx","NaN","<div style=""width:500px;"">
                                <p style=""font-size:50px; font-weight:bold;""
                                ></p>
                                <div style=""width:240px; margin: auto;"">
                                    <img src=""images/D9.png"" style= ""width:200px""alt=""img"">
                                </div>
                            </div>","45","","0","images/D9.png","","","","[""Stripey"",""Blobby""]"
"","","","","","html-slider-response","55","229219","0.0-51.0","fmh9u539fx","NaN","<div style=""width:500px;"">
                                <p style=""font-size:50px; font-weight:bold;""
                                ></p>
                                <div style=""width:240px; margin: auto;"">
                                    <img src=""images/D19.png"" style= ""width:200px""alt=""img"">
                                </div>
                            </div>","69","","0","images/D19.png","","","","[""Stripey"",""Blobby""]"
"","","","","","html-slider-response","56","231606","0.0-52.0","fmh9u539fx","NaN","<div style=""width:500px;"">
                                <p style=""font-size:50px; font-weight:bold;""
                                ></p>
                                <div style=""width:240px; margin: auto;"">
                                    <img src=""images/D20.png"" style= ""width:200px""alt=""img"">
                                </div>
                            </div>","-22","","0","images/D20.png","","","","[""Stripey"",""Blobby""]"
"","","","","","html-slider-response","57","233894","0.0-53.0","fmh9u539fx","NaN","<div style=""width:500px;"">
                                <p style=""font-size:50px; font-weight:bold;""
                                ></p>
                                <div style=""width:240px; margin: auto;"">
                                    <img src=""images/D29.png"" style= ""width:200px""alt=""img"">
                                </div>
                            </div>","39","","0","images/D29.png","","","","[""Stripey"",""Blobby""]"
"","","","","","html-slider-response","58","236085","0.0-54.0","fmh9u539fx","NaN","<div style=""width:500px;"">
                                <p style=""font-size:50px; font-weight:bold;""
                                ></p>
                                <div style=""width:240px; margin: auto;"">
                                    <img src=""images/D8.png"" style= ""width:200px""alt=""img"">
                                </div>
                            </div>","85","","0","images/D8.png","","","","[""Stripey"",""Blobby""]"
"","","","","","html-slider-response","59","238859","0.0-55.0","fmh9u539fx","NaN","<div style=""width:500px;"">
                                <p style=""font-size:50px; font-weight:bold;""
                                ></p>
                                <div style=""width:240px; margin: auto;"">
                                    <img src=""images/D1.png"" style= ""width:200px""alt=""img"">
                                </div>
                            </div>","-24","","0","images/D1.png","","","","[""Stripey"",""Blobby""]"
"","","","","","html-slider-response","60","241418","0.0-56.0","fmh9u539fx","NaN","<div style=""width:500px;"">
                                <p style=""font-size:50px; font-weight:bold;""
                                ></p>
                                <div style=""width:240px; margin: auto;"">
                                    <img src=""images/D92.png"" style= ""width:200px""alt=""img"">
                                </div>
                            </div>","127","","0","images/D92.png","","","","[""Stripey"",""Blobby""]"
"","","","","","html-slider-response","61","244042","0.0-57.0","fmh9u539fx","NaN","<div style=""width:500px;"">
                                <p style=""font-size:50px; font-weight:bold;""
                                ></p>
                                <div style=""width:240px; margin: auto;"">
                                    <img src=""images/D84.png"" style= ""width:200px""alt=""img"">
                                </div>
                            </div>","101","","0","images/D84.png","","","","[""Stripey"",""Blobby""]"
"","","","","","html-slider-response","62","248283","0.0-58.0","fmh9u539fx","NaN","<div style=""width:500px;"">
                                <p style=""font-size:50px; font-weight:bold;""
                                ></p>
                                <div style=""width:240px; margin: auto;"">
                                    <img src=""images/D104.png"" style= ""width:200px""alt=""img"">
                                </div>
                            </div>","-23","","0","images/D104.png","","","","[""Stripey"",""Blobby""]"
"","","","","","html-slider-response","63","252648","0.0-59.0","fmh9u539fx","NaN","<div style=""width:500px;"">
                                <p style=""font-size:50px; font-weight:bold;""
                                ></p>
                                <div style=""width:240px; margin: auto;"">
                                    <img src=""images/D37.png"" style= ""width:200px""alt=""img"">
                                </div>
                            </div>","46","","0","images/D37.png","","","","[""Stripey"",""Blobby""]"
"","","","","","html-slider-response","64","255464","0.0-60.0","fmh9u539fx","NaN","<div style=""width:500px;"">
                                <p style=""font-size:50px; font-weight:bold;""
                                ></p>
                                <div style=""width:240px; margin: auto;"">
                                    <img src=""images/D79.png"" style= ""width:200px""alt=""img"">
                                </div>
                            </div>","-42","","0","images/D79.png","","","","[""Stripey"",""Blobby""]"
"","","","","","html-slider-response","65","257706","0.0-61.0","fmh9u539fx","NaN","<div style=""width:500px;"">
                                <p style=""font-size:50px; font-weight:bold;""
                                ></p>
                                <div style=""width:240px; margin: auto;"">
                                    <img src=""images/D32.png"" style= ""width:200px""alt=""img"">
                                </div>
                            </div>","86","","0","images/D32.png","","","","[""Stripey"",""Blobby""]"
"","","","","","html-slider-response","66","260496","0.0-62.0","fmh9u539fx","NaN","<div style=""width:500px;"">
                                <p style=""font-size:50px; font-weight:bold;""
                                ></p>
                                <div style=""width:240px; margin: auto;"">
                                    <img src=""images/D25.png"" style= ""width:200px""alt=""img"">
                                </div>
                            </div>","-137","","0","images/D25.png","","","","[""Stripey"",""Blobby""]"
"","","","","","html-slider-response","67","263468","0.0-63.0","fmh9u539fx","NaN","<div style=""width:500px;"">
                                <p style=""font-size:50px; font-weight:bold;""
                                ></p>
                                <div style=""width:240px; margin: auto;"">
                                    <img src=""images/D102.png"" style= ""width:200px""alt=""img"">
                                </div>
                            </div>","140","","0","images/D102.png","","","","[""Stripey"",""Blobby""]"
"","","","","","html-slider-response","68","265993","0.0-64.0","fmh9u539fx","NaN","<div style=""width:500px;"">
                                <p style=""font-size:50px; font-weight:bold;""
                                ></p>
                                <div style=""width:240px; margin: auto;"">
                                    <img src=""images/D56.png"" style= ""width:200px""alt=""img"">
                                </div>
                            </div>","66","","0","images/D56.png","","","","[""Stripey"",""Blobby""]"
"","","","","","html-slider-response","69","270539","0.0-65.0","fmh9u539fx","NaN","<div style=""width:500px;"">
                                <p style=""font-size:50px; font-weight:bold;""
                                ></p>
                                <div style=""width:240px; margin: auto;"">
                                    <img src=""images/D14.png"" style= ""width:200px""alt=""img"">
                                </div>
                            </div>","44","","0","images/D14.png","","","","[""Stripey"",""Blobby""]"
"","","","","","html-slider-response","70","272706","0.0-66.0","fmh9u539fx","NaN","<div style=""width:500px;"">
                                <p style=""font-size:50px; font-weight:bold;""
                                ></p>
                                <div style=""width:240px; margin: auto;"">
                                    <img src=""images/D6.png"" style= ""width:200px""alt=""img"">
                                </div>
                            </div>","30","","0","images/D6.png","","","","[""Stripey"",""Blobby""]"
"","","","","","html-slider-response","71","275096","0.0-67.0","fmh9u539fx","NaN","<div style=""width:500px;"">
                                <p style=""font-size:50px; font-weight:bold;""
                                ></p>
                                <div style=""width:240px; margin: auto;"">
                                    <img src=""images/D24.png"" style= ""width:200px""alt=""img"">
                                </div>
                            </div>","122","","0","images/D24.png","","","","[""Stripey"",""Blobby""]"
"","","","","","html-slider-response","72","278049","0.0-68.0","fmh9u539fx","NaN","<div style=""width:500px;"">
                                <p style=""font-size:50px; font-weight:bold;""
                                ></p>
                                <div style=""width:240px; margin: auto;"">
                                    <img src=""images/D11.png"" style= ""width:200px""alt=""img"">
                                </div>
                            </div>","-64","","0","images/D11.png","","","","[""Stripey"",""Blobby""]"
"","","","","","html-slider-response","73","280674","0.0-69.0","fmh9u539fx","NaN","<div style=""width:500px;"">
                                <p style=""font-size:50px; font-weight:bold;""
                                ></p>
                                <div style=""width:240px; margin: auto;"">
                                    <img src=""images/D105.png"" style= ""width:200px""alt=""img"">
                                </div>
                            </div>","-93","","0","images/D105.png","","","","[""Stripey"",""Blobby""]"
"","","","","","html-slider-response","74","283052","0.0-70.0","fmh9u539fx","NaN","<div style=""width:500px;"">
                                <p style=""font-size:50px; font-weight:bold;""
                                ></p>
                                <div style=""width:240px; margin: auto;"">
                                    <img src=""images/D16.png"" style= ""width:200px""alt=""img"">
                                </div>
                            </div>","-48","","0","images/D16.png","","","","[""Stripey"",""Blobby""]"
"","","","","","html-slider-response","75","285239","0.0-71.0","fmh9u539fx","NaN","<div style=""width:500px;"">
                                <p style=""font-size:50px; font-weight:bold;""
                                ></p>
                                <div style=""width:240px; margin: auto;"">
                                    <img src=""images/D35.png"" style= ""width:200px""alt=""img"">
                                </div>
                            </div>","66","","0","images/D35.png","","","","[""Stripey"",""Blobby""]"
"","","","","","html-slider-response","76","287553","0.0-72.0","fmh9u539fx","NaN","<div style=""width:500px;"">
                                <p style=""font-size:50px; font-weight:bold;""
                                ></p>
                                <div style=""width:240px; margin: auto;"">
                                    <img src=""images/D74.png"" style= ""width:200px""alt=""img"">
                                </div>
                            </div>","106","","0","images/D74.png","","","","[""Stripey"",""Blobby""]"
"","","","","","html-slider-response","77","289823","0.0-73.0","fmh9u539fx","NaN","<div style=""width:500px;"">
                                <p style=""font-size:50px; font-weight:bold;""
                                ></p>
                                <div style=""width:240px; margin: auto;"">
                                    <img src=""images/D80.png"" style= ""width:200px""alt=""img"">
                                </div>
                            </div>","62","","0","images/D80.png","","","","[""Stripey"",""Blobby""]"
"","","","","","html-slider-response","78","292882","0.0-74.0","fmh9u539fx","NaN","<div style=""width:500px;"">
                                <p style=""font-size:50px; font-weight:bold;""
                                ></p>
                                <div style=""width:240px; margin: auto;"">
                                    <img src=""images/D48.png"" style= ""width:200px""alt=""img"">
                                </div>
                            </div>","193","","0","images/D48.png","","","","[""Stripey"",""Blobby""]"
"","","","","","html-slider-response","79","295231","0.0-75.0","fmh9u539fx","NaN","<div style=""width:500px;"">
                                <p style=""font-size:50px; font-weight:bold;""
                                ></p>
                                <div style=""width:240px; margin: auto;"">
                                    <img src=""images/D82.png"" style= ""width:200px""alt=""img"">
                                </div>
                            </div>","76","","0","images/D82.png","","","","[""Stripey"",""Blobby""]"
"","","","","","html-button-response","80","297544","0.0-76.0","fmh9u539fx","1807","You have completed the first block of trials out of six. Please click 'Continue' when you are ready proceed.","0","","","","","","",""
"","","","","","html-button-response","81","298953","0.0-77.0","fmh9u539fx","1408","In the following trials, you will be asked to rate textures on the scale <b>Rectangular</b> versus <b>Rounded</b>. Please click 'Continue' when you are ready proceed.","0","","","","","","",""
"","","","","","html-slider-response","82","300810","0.0-78.0","fmh9u539fx","NaN","<div style=""width:500px;"">
                                <p style=""font-size:50px; font-weight:bold;""
                                ></p>
                                <div style=""width:240px; margin: auto;"">
                                    <img src=""images/D111.png"" style= ""width:200px""alt=""img"">
                                </div>
                            </div>","130","","0","images/D111.png","","","","[""Rectangular"",""Rounded""]"
"","","","","","html-slider-response","83","303510","0.0-79.0","fmh9u539fx","NaN","<div style=""width:500px;"">
                                <p style=""font-size:50px; font-weight:bold;""
                                ></p>
                                <div style=""width:240px; margin: auto;"">
                                    <img src=""images/D106.png"" style= ""width:200px""alt=""img"">
                                </div>
                            </div>","-77","","0","images/D106.png","","","","[""Rectangular"",""Rounded""]"
"","","","","","html-slider-response","84","305766","0.0-80.0","fmh9u539fx","NaN","<div style=""width:500px;"">
                                <p style=""font-size:50px; font-weight:bold;""
                                ></p>
                                <div style=""width:240px; margin: auto;"">
                                    <img src=""images/D22.png"" style= ""width:200px""alt=""img"">
                                </div>
                            </div>","62","","0","images/D22.png","","","","[""Rectangular"",""Rounded""]"
"","","","","","html-slider-response","85","308019","0.0-81.0","fmh9u539fx","NaN","<div style=""width:500px;"">
                                <p style=""font-size:50px; font-weight:bold;""
                                ></p>
                                <div style=""width:240px; margin: auto;"">
                                    <img src=""images/D95.png"" style= ""width:200px""alt=""img"">
                                </div>
                            </div>","-164","","0","images/D95.png","","","","[""Rectangular"",""Rounded""]"
"","","","","","html-slider-response","86","311793","0.0-82.0","fmh9u539fx","NaN","<div style=""width:500px;"">
                                <p style=""font-size:50px; font-weight:bold;""
                                ></p>
                                <div style=""width:240px; margin: auto;"">
                                    <img src=""images/D81.png"" style= ""width:200px""alt=""img"">
                                </div>
                            </div>","28","","0","images/D81.png","","","","[""Rectangular"",""Rounded""]"
"","","","","","html-slider-response","87","314648","0.0-83.0","fmh9u539fx","NaN","<div style=""width:500px;"">
                                <p style=""font-size:50px; font-weight:bold;""
                                ></p>
                                <div style=""width:240px; margin: auto;"">
                                    <img src=""images/D96.png"" style= ""width:200px""alt=""img"">
                                </div>
                            </div>","-194","","0","images/D96.png","","","","[""Rectangular"",""Rounded""]"
"","","","","","html-slider-response","88","317094","0.0-84.0","fmh9u539fx","NaN","<div style=""width:500px;"">
                                <p style=""font-size:50px; font-weight:bold;""
                                ></p>
                                <div style=""width:240px; margin: auto;"">
                                    <img src=""images/D37.png"" style= ""width:200px""alt=""img"">
                                </div>
                            </div>","65","","0","images/D37.png","","","","[""Rectangular"",""Rounded""]"
"","","","","","html-slider-response","89","320039","0.0-85.0","fmh9u539fx","NaN","<div style=""width:500px;"">
                                <p style=""font-size:50px; font-weight:bold;""
                                ></p>
                                <div style=""width:240px; margin: auto;"">
                                    <img src=""images/D103.png"" style= ""width:200px""alt=""img"">
                                </div>
                            </div>","-58","","0","images/D103.png","","","","[""Rectangular"",""Rounded""]"
"","","","","","html-slider-response","90","322832","0.0-86.0","fmh9u539fx","NaN","<div style=""width:500px;"">
                                <p style=""font-size:50px; font-weight:bold;""
                                ></p>
                                <div style=""width:240px; margin: auto;"">
                                    <img src=""images/D104.png"" style= ""width:200px""alt=""img"">
                                </div>
                            </div>","-42","","0","images/D104.png","","","","[""Rectangular"",""Rounded""]"
"","","","","","html-slider-response","91","325144","0.0-87.0","fmh9u539fx","NaN","<div style=""width:500px;"">
                                <p style=""font-size:50px; font-weight:bold;""
                                ></p>
                                <div style=""width:240px; margin: auto;"">
                                    <img src=""images/D20.png"" style= ""width:200px""alt=""img"">
                                </div>
                            </div>","-90","","0","images/D20.png","","","","[""Rectangular"",""Rounded""]"
"","","","","","html-slider-response","92","327712","0.0-88.0","fmh9u539fx","NaN","<div style=""width:500px;"">
                                <p style=""font-size:50px; font-weight:bold;""
                                ></p>
                                <div style=""width:240px; margin: auto;"">
                                    <img src=""images/D85.png"" style= ""width:200px""alt=""img"">
                                </div>
                            </div>","-70","","0","images/D85.png","","","","[""Rectangular"",""Rounded""]"
"","","","","","html-slider-response","93","330176","0.0-89.0","fmh9u539fx","NaN","<div style=""width:500px;"">
                                <p style=""font-size:50px; font-weight:bold;""
                                ></p>
                                <div style=""width:240px; margin: auto;"">
                                    <img src=""images/D4.png"" style= ""width:200px""alt=""img"">
                                </div>
                            </div>","69","","0","images/D4.png","","","","[""Rectangular"",""Rounded""]"
"","","","","","html-slider-response","94","332878","0.0-90.0","fmh9u539fx","NaN","<div style=""width:500px;"">
                                <p style=""font-size:50px; font-weight:bold;""
                                ></p>
                                <div style=""width:240px; margin: auto;"">
                                    <img src=""images/D77.png"" style= ""width:200px""alt=""img"">
                                </div>
                            </div>","53","","0","images/D77.png","","","","[""Rectangular"",""Rounded""]"
"","","","","","html-slider-response","95","335521","0.0-91.0","fmh9u539fx","NaN","<div style=""width:500px;"">
                                <p style=""font-size:50px; font-weight:bold;""
                                ></p>
                                <div style=""width:240px; margin: auto;"">
                                    <img src=""images/D8.png"" style= ""width:200px""alt=""img"">
                                </div>
                            </div>","114","","0","images/D8.png","","","","[""Rectangular"",""Rounded""]"
"","","","","","html-slider-response","96","338184","0.0-92.0","fmh9u539fx","NaN","<div style=""width:500px;"">
                                <p style=""font-size:50px; font-weight:bold;""
                                ></p>
                                <div style=""width:240px; margin: auto;"">
                                    <img src=""images/D16.png"" style= ""width:200px""alt=""img"">
                                </div>
                            </div>","-63","","0","images/D16.png","","","","[""Rectangular"",""Rounded""]"
"","","","","","html-slider-response","97","340711","0.0-93.0","fmh9u539fx","NaN","<div style=""width:500px;"">
                                <p style=""font-size:50px; font-weight:bold;""
                                ></p>
                                <div style=""width:240px; margin: auto;"">
                                    <img src=""images/D94.png"" style= ""width:200px""alt=""img"">
                                </div>
                            </div>","-131","","0","images/D94.png","","","","[""Rectangular"",""Rounded""]"
"","","","","","html-slider-response","98","343141","0.0-94.0","fmh9u539fx","NaN","<div style=""width:500px;"">
                                <p style=""font-size:50px; font-weight:bold;""
                                ></p>
                                <div style=""width:240px; margin: auto;"">
                                    <img src=""images/D76.png"" style= ""width:200px""alt=""img"">
                                </div>
                            </div>","58","","0","images/D76.png","","","","[""Rectangular"",""Rounded""]"
"","","","","","html-slider-response","99","345478","0.0-95.0","fmh9u539fx","NaN","<div style=""width:500px;"">
                                <p style=""font-size:50px; font-weight:bold;""
                                ></p>
                                <div style=""width:240px; margin: auto;"">
                                    <img src=""images/D34.png"" style= ""width:200px""alt=""img"">
                                </div>
                            </div>","139","","0","images/D34.png","","","","[""Rectangular"",""Rounded""]"
"","","","","","html-slider-response","100","348480","0.0-96.0","fmh9u539fx","NaN","<div style=""width:500px;"">
                                <p style=""font-size:50px; font-weight:bold;""
                                ></p>
                                <div style=""width:240px; margin: auto;"">
                                    <img src=""images/D18.png"" style= ""width:200px""alt=""img"">
                                </div>
                            </div>","-30","","0","images/D18.png","","","","[""Rectangular"",""Rounded""]"
"","","","","","html-slider-response","101","350611","0.0-97.0","fmh9u539fx","NaN","<div style=""width:500px;"">
                                <p style=""font-size:50px; font-weight:bold;""
                                ></p>
                                <div style=""width:240px; margin: auto;"">
                                    <img src=""images/D32.png"" style= ""width:200px""alt=""img"">
                                </div>
                            </div>","107","","0","images/D32.png","","","","[""Rectangular"",""Rounded""]"
"","","","","","html-slider-response","102","353741","0.0-98.0","fmh9u539fx","NaN","<div style=""width:500px;"">
                                <p style=""font-size:50px; font-weight:bold;""
                                ></p>
                                <div style=""width:240px; margin: auto;"">
                                    <img src=""images/D49.png"" style= ""width:200px""alt=""img"">
                                </div>
                            </div>","-96","","0","images/D49.png","","","","[""Rectangular"",""Rounded""]"
"","","","","","html-slider-response","103","355992","0.0-99.0","fmh9u539fx","NaN","<div style=""width:500px;"">
                                <p style=""font-size:50px; font-weight:bold;""
                                ></p>
                                <div style=""width:240px; margin: auto;"">
                                    <img src=""images/D24.png"" style= ""width:200px""alt=""img"">
                                </div>
                            </div>","34","","0","images/D24.png","","","","[""Rectangular"",""Rounded""]"
"","","","","","html-slider-response","104","357869","0.0-100.0","fmh9u539fx","NaN","<div style=""width:500px;"">
                                <p style=""font-size:50px; font-weight:bold;""
                                ></p>
                                <div style=""width:240px; margin: auto;"">
                                    <img src=""images/D92.png"" style= ""width:200px""alt=""img"">
                                </div>
                            </div>","85","","0","images/D92.png","","","","[""Rectangular"",""Rounded""]"
"","","","","","html-slider-response","105","363168","0.0-101.0","fmh9u539fx","NaN","<div style=""width:500px;"">
                                <p style=""font-size:50px; font-weight:bold;""
                                ></p>
                                <div style=""width:240px; margin: auto;"">
                                    <img src=""images/D17.png"" style= ""width:200px""alt=""img"">
                                </div>
                            </div>","18","","0","images/D17.png","","","","[""Rectangular"",""Rounded""]"
"","","","","","html-slider-response","106","365586","0.0-102.0","fmh9u539fx","NaN","<div style=""width:500px;"">
                                <p style=""font-size:50px; font-weight:bold;""
                                ></p>
                                <div style=""width:240px; margin: auto;"">
                                    <img src=""images/D46.png"" style= ""width:200px""alt=""img"">
                                </div>
                            </div>","56","","0","images/D46.png","","","","[""Rectangular"",""Rounded""]"
"","","","","","html-slider-response","107","368145","0.0-103.0","fmh9u539fx","NaN","<div style=""width:500px;"">
                                <p style=""font-size:50px; font-weight:bold;""
                                ></p>
                                <div style=""width:240px; margin: auto;"">
                                    <img src=""images/D55.png"" style= ""width:200px""alt=""img"">
                                </div>
                            </div>","-27","","0","images/D55.png","","","","[""Rectangular"",""Rounded""]"
"","","","","","html-slider-response","108","370502","0.0-104.0","fmh9u539fx","NaN","<div style=""width:500px;"">
                                <p style=""font-size:50px; font-weight:bold;""
                                ></p>
                                <div style=""width:240px; margin: auto;"">
                                    <img src=""images/D9.png"" style= ""width:200px""alt=""img"">
                                </div>
                            </div>","23","","0","images/D9.png","","","","[""Rectangular"",""Rounded""]"
"","","","","","html-slider-response","109","372599","0.0-105.0","fmh9u539fx","NaN","<div style=""width:500px;"">
                                <p style=""font-size:50px; font-weight:bold;""
                                ></p>
                                <div style=""width:240px; margin: auto;"">
                                    <img src=""images/D36.png"" style= ""width:200px""alt=""img"">
                                </div>
                            </div>","79","","0","images/D36.png","","","","[""Rectangular"",""Rounded""]"
"","","","","","html-slider-response","110","375187","0.0-106.0","fmh9u539fx","NaN","<div style=""width:500px;"">
                                <p style=""font-size:50px; font-weight:bold;""
                                ></p>
                                <div style=""width:240px; margin: auto;"">
                                    <img src=""images/D25.png"" style= ""width:200px""alt=""img"">
                                </div>
                            </div>","-197","","0","images/D25.png","","","","[""Rectangular"",""Rounded""]"
"","","","","","html-slider-response","111","377637","0.0-107.0","fmh9u539fx","NaN","<div style=""width:500px;"">
                                <p style=""font-size:50px; font-weight:bold;""
                                ></p>
                                <div style=""width:240px; margin: auto;"">
                                    <img src=""images/D65.png"" style= ""width:200px""alt=""img"">
                                </div>
                            </div>","-106","","0","images/D65.png","","","","[""Rectangular"",""Rounded""]"
"","","","","","html-slider-response","112","379830","0.0-108.0","fmh9u539fx","NaN","<div style=""width:500px;"">
                                <p style=""font-size:50px; font-weight:bold;""
                                ></p>
                                <div style=""width:240px; margin: auto;"">
                                    <img src=""images/D1.png"" style= ""width:200px""alt=""img"">
                                </div>
                            </div>","-154","","0","images/D1.png","","","","[""Rectangular"",""Rounded""]"
"","","","","","html-slider-response","113","382073","0.0-109.0","fmh9u539fx","NaN","<div style=""width:500px;"">
                                <p style=""font-size:50px; font-weight:bold;""
                                ></p>
                                <div style=""width:240px; margin: auto;"">
                                    <img src=""images/D82.png"" style= ""width:200px""alt=""img"">
                                </div>
                            </div>","-41","","0","images/D82.png","","","","[""Rectangular"",""Rounded""]"
"","","","","","html-slider-response","114","384606","0.0-110.0","fmh9u539fx","NaN","<div style=""width:500px;"">
                                <p style=""font-size:50px; font-weight:bold;""
                                ></p>
                                <div style=""width:240px; margin: auto;"">
                                    <img src=""images/D56.png"" style= ""width:200px""alt=""img"">
                                </div>
                            </div>","46","","0","images/D56.png","","","","[""Rectangular"",""Rounded""]"
"","","","","","html-slider-response","115","386787","0.0-111.0","fmh9u539fx","NaN","<div style=""width:500px;"">
                                <p style=""font-size:50px; font-weight:bold;""
                                ></p>
                                <div style=""width:240px; margin: auto;"">
                                    <img src=""images/D51.png"" style= ""width:200px""alt=""img"">
                                </div>
                            </div>","-42","","0","images/D51.png","","","","[""Rectangular"",""Rounded""]"
"","","","","","html-slider-response","116","389011","0.0-112.0","fmh9u539fx","NaN","<div style=""width:500px;"">
                                <p style=""font-size:50px; font-weight:bold;""
                                ></p>
                                <div style=""width:240px; margin: auto;"">
                                    <img src=""images/D74.png"" style= ""width:200px""alt=""img"">
                                </div>
                            </div>","113","","0","images/D74.png","","","","[""Rectangular"",""Rounded""]"
"","","","","","html-slider-response","117","391079","0.0-113.0","fmh9u539fx","NaN","<div style=""width:500px;"">
                                <p style=""font-size:50px; font-weight:bold;""
                                ></p>
                                <div style=""width:240px; margin: auto;"">
                                    <img src=""images/D29.png"" style= ""width:200px""alt=""img"">
                                </div>
                            </div>","51","","0","images/D29.png","","","","[""Rectangular"",""Rounded""]"
"","","","","","html-slider-response","118","393220","0.0-114.0","fmh9u539fx","NaN","<div style=""width:500px;"">
                                <p style=""font-size:50px; font-weight:bold;""
                                ></p>
                                <div style=""width:240px; margin: auto;"">
                                    <img src=""images/D3.png"" style= ""width:200px""alt=""img"">
                                </div>
                            </div>","93","","0","images/D3.png","","","","[""Rectangular"",""Rounded""]"
"","","","","","html-slider-response","119","395763","0.0-115.0","fmh9u539fx","NaN","<div style=""width:500px;"">
                                <p style=""font-size:50px; font-weight:bold;""
                                ></p>
                                <div style=""width:240px; margin: auto;"">
                                    <img src=""images/D26.png"" style= ""width:200px""alt=""img"">
                                </div>
                            </div>","-195","","0","images/D26.png","","","","[""Rectangular"",""Rounded""]"
"","","","","","html-slider-response","120","398275","0.0-116.0","fmh9u539fx","NaN","<div style=""width:500px;"">
                                <p style=""font-size:50px; font-weight:bold;""
                                ></p>
                                <div style=""width:240px; margin: auto;"">
                                    <img src=""images/D79.png"" style= ""width:200px""alt=""img"">
                                </div>
                            </div>","-40","","0","images/D79.png","","","","[""Rectangular"",""Rounded""]"
"","","","","","html-slider-response","121","400587","0.0-117.0","fmh9u539fx","NaN","<div style=""width:500px;"">
                                <p style=""font-size:50px; font-weight:bold;""
                                ></p>
                                <div style=""width:240px; margin: auto;"">
                                    <img src=""images/D52.png"" style= ""width:200px""alt=""img"">
                                </div>
                            </div>","-62","","0","images/D52.png","","","","[""Rectangular"",""Rounded""]"
"","","","","","html-slider-response","122","403367","0.0-118.0","fmh9u539fx","NaN","<div style=""width:500px;"">
                                <p style=""font-size:50px; font-weight:bold;""
                                ></p>
                                <div style=""width:240px; margin: auto;"">
                                    <img src=""images/D75.png"" style= ""width:200px""alt=""img"">
                                </div>
                            </div>","154","","0","images/D75.png","","","","[""Rectangular"",""Rounded""]"
"","","","","","html-slider-response","123","405798","0.0-119.0","fmh9u539fx","NaN","<div style=""width:500px;"">
                                <p style=""font-size:50px; font-weight:bold;""
                                ></p>
                                <div style=""width:240px; margin: auto;"">
                                    <img src=""images/D47.png"" style= ""width:200px""alt=""img"">
                                </div>
                            </div>","-21","","0","images/D47.png","","","","[""Rectangular"",""Rounded""]"
"","","","","","html-slider-response","124","408230","0.0-120.0","fmh9u539fx","NaN","<div style=""width:500px;"">
                                <p style=""font-size:50px; font-weight:bold;""
                                ></p>
                                <div style=""width:240px; margin: auto;"">
                                    <img src=""images/D11.png"" style= ""width:200px""alt=""img"">
                                </div>
                            </div>","-51","","0","images/D11.png","","","","[""Rectangular"",""Rounded""]"
"","","","","","html-slider-response","125","410859","0.0-121.0","fmh9u539fx","NaN","<div style=""width:500px;"">
                                <p style=""font-size:50px; font-weight:bold;""
                                ></p>
                                <div style=""width:240px; margin: auto;"">
                                    <img src=""images/D57.png"" style= ""width:200px""alt=""img"">
                                </div>
                            </div>","91","","0","images/D57.png","","","","[""Rectangular"",""Rounded""]"
"","","","","","html-slider-response","126","413587","0.0-122.0","fmh9u539fx","NaN","<div style=""width:500px;"">
                                <p style=""font-size:50px; font-weight:bold;""
                                ></p>
                                <div style=""width:240px; margin: auto;"">
                                    <img src=""images/D102.png"" style= ""width:200px""alt=""img"">
                                </div>
                            </div>","198","","0","images/D102.png","","","","[""Rectangular"",""Rounded""]"
"","","","","","html-slider-response","127","416727","0.0-123.0","fmh9u539fx","NaN","<div style=""width:500px;"">
                                <p style=""font-size:50px; font-weight:bold;""
                                ></p>
                                <div style=""width:240px; margin: auto;"">
                                    <img src=""images/D19.png"" style= ""width:200px""alt=""img"">
                                </div>
                            </div>","77","","0","images/D19.png","","","","[""Rectangular"",""Rounded""]"
"","","","","","html-slider-response","128","419013","0.0-124.0","fmh9u539fx","NaN","<div style=""width:500px;"">
                                <p style=""font-size:50px; font-weight:bold;""
                                ></p>
                                <div style=""width:240px; margin: auto;"">
                                    <img src=""images/D87.png"" style= ""width:200px""alt=""img"">
                                </div>
                            </div>","29","","0","images/D87.png","","","","[""Rectangular"",""Rounded""]"
"","","","","","html-slider-response","129","421808","0.0-125.0","fmh9u539fx","NaN","<div style=""width:500px;"">
                                <p style=""font-size:50px; font-weight:bold;""
                                ></p>
                                <div style=""width:240px; margin: auto;"">
                                    <img src=""images/D14.png"" style= ""width:200px""alt=""img"">
                                </div>
                            </div>","14","","0","images/D14.png","","","","[""Rectangular"",""Rounded""]"
"","","","","","html-slider-response","130","423997","0.0-126.0","fmh9u539fx","NaN","<div style=""width:500px;"">
                                <p style=""font-size:50px; font-weight:bold;""
                                ></p>
                                <div style=""width:240px; margin: auto;"">
                                    <img src=""images/D83.png"" style= ""width:200px""alt=""img"">
                                </div>
                            </div>","-21","","0","images/D83.png","","","","[""Rectangular"",""Rounded""]"
"","","","","","html-slider-response","131","427742","0.0-127.0","fmh9u539fx","NaN","<div style=""width:500px;"">
                                <p style=""font-size:50px; font-weight:bold;""
                                ></p>
                                <div style=""width:240px; margin: auto;"">
                                    <img src=""images/D78.png"" style= ""width:200px""alt=""img"">
                                </div>
                            </div>","-58","","0","images/D78.png","","","","[""Rectangular"",""Rounded""]"
"","","","","","html-slider-response","132","430333","0.0-128.0","fmh9u539fx","NaN","<div style=""width:500px;"">
                                <p style=""font-size:50px; font-weight:bold;""
                                ></p>
                                <div style=""width:240px; margin: auto;"">
                                    <img src=""images/D48.png"" style= ""width:200px""alt=""img"">
                                </div>
                            </div>","199","","0","images/D48.png","","","","[""Rectangular"",""Rounded""]"
"","","","","","html-slider-response","133","433049","0.0-129.0","fmh9u539fx","NaN","<div style=""width:500px;"">
                                <p style=""font-size:50px; font-weight:bold;""
                                ></p>
                                <div style=""width:240px; margin: auto;"">
                                    <img src=""images/D105.png"" style= ""width:200px""alt=""img"">
                                </div>
                            </div>","-32","","0","images/D105.png","","","","[""Rectangular"",""Rounded""]"
"","","","","","html-slider-response","134","436065","0.0-130.0","fmh9u539fx","NaN","<div style=""width:500px;"">
                                <p style=""font-size:50px; font-weight:bold;""
                                ></p>
                                <div style=""width:240px; margin: auto;"">
                                    <img src=""images/D80.png"" style= ""width:200px""alt=""img"">
                                </div>
                            </div>","-53","","0","images/D80.png","","","","[""Rectangular"",""Rounded""]"
"","","","","","html-slider-response","135","437879","0.0-131.0","fmh9u539fx","NaN","<div style=""width:500px;"">
                                <p style=""font-size:50px; font-weight:bold;""
                                ></p>
                                <div style=""width:240px; margin: auto;"">
                                    <img src=""images/D21.png"" style= ""width:200px""alt=""img"">
                                </div>
                            </div>","-84","","0","images/D21.png","","","","[""Rectangular"",""Rounded""]"
"","","","","","html-slider-response","136","440451","0.0-132.0","fmh9u539fx","NaN","<div style=""width:500px;"">
                                <p style=""font-size:50px; font-weight:bold;""
                                ></p>
                                <div style=""width:240px; margin: auto;"">
                                    <img src=""images/D66.png"" style= ""width:200px""alt=""img"">
                                </div>
                            </div>","183","","0","images/D66.png","","","","[""Rectangular"",""Rounded""]"
"","","","","","html-slider-response","137","442760","0.0-133.0","fmh9u539fx","NaN","<div style=""width:500px;"">
                                <p style=""font-size:50px; font-weight:bold;""
                                ></p>
                                <div style=""width:240px; margin: auto;"">
                                    <img src=""images/D6.png"" style= ""width:200px""alt=""img"">
                                </div>
                            </div>","73","","0","images/D6.png","","","","[""Rectangular"",""Rounded""]"
"","","","","","html-slider-response","138","444733","0.0-134.0","fmh9u539fx","NaN","<div style=""width:500px;"">
                                <p style=""font-size:50px; font-weight:bold;""
                                ></p>
                                <div style=""width:240px; margin: auto;"">
                                    <img src=""images/D35.png"" style= ""width:200px""alt=""img"">
                                </div>
                            </div>","110","","0","images/D35.png","","","","[""Rectangular"",""Rounded""]"
"","","","","","html-slider-response","139","446781","0.0-135.0","fmh9u539fx","NaN","<div style=""width:500px;"">
                                <p style=""font-size:50px; font-weight:bold;""
                                ></p>
                                <div style=""width:240px; margin: auto;"">
                                    <img src=""images/D101.png"" style= ""width:200px""alt=""img"">
                                </div>
                            </div>","160","","0","images/D101.png","","","","[""Rectangular"",""Rounded""]"
"","","","","","html-slider-response","140","448818","0.0-136.0","fmh9u539fx","NaN","<div style=""width:500px;"">
                                <p style=""font-size:50px; font-weight:bold;""
                                ></p>
                                <div style=""width:240px; margin: auto;"">
                                    <img src=""images/D53.png"" style= ""width:200px""alt=""img"">
                                </div>
                            </div>","-27","","0","images/D53.png","","","","[""Rectangular"",""Rounded""]"
"","","","","","html-slider-response","141","451152","0.0-137.0","fmh9u539fx","NaN","<div style=""width:500px;"">
                                <p style=""font-size:50px; font-weight:bold;""
                                ></p>
                                <div style=""width:240px; margin: auto;"">
                                    <img src=""images/D68.png"" style= ""width:200px""alt=""img"">
                                </div>
                            </div>","-9","","0","images/D68.png","","","","[""Rectangular"",""Rounded""]"
"","","","","","html-slider-response","142","453214","0.0-138.0","fmh9u539fx","NaN","<div style=""width:500px;"">
                                <p style=""font-size:50px; font-weight:bold;""
                                ></p>
                                <div style=""width:240px; margin: auto;"">
                                    <img src=""images/D84.png"" style= ""width:200px""alt=""img"">
                                </div>
                            </div>","42","","0","images/D84.png","","","","[""Rectangular"",""Rounded""]"
"","","","","","html-slider-response","143","455502","0.0-139.0","fmh9u539fx","NaN","<div style=""width:500px;"">
                                <p style=""font-size:50px; font-weight:bold;""
                                ></p>
                                <div style=""width:240px; margin: auto;"">
                                    <img src=""images/D64.png"" style= ""width:200px""alt=""img"">
                                </div>
                            </div>","-86","","0","images/D64.png","","","","[""Rectangular"",""Rounded""]"
"","","","","","html-button-response","144","458741","0.0-140.0","fmh9u539fx","2733","You have completed the second block of trials out of six. Please click 'Continue' when you are ready proceed.","0","","","","","","",""
"","","","","","html-button-response","145","460185","0.0-141.0","fmh9u539fx","1442","In the following trials, you will be asked to rate textures on the scale <b>Soft</b> versus <b>Hard</b>. Please click 'Continue' when you are ready proceed.","0","","","","","","",""
"","","","","","html-slider-response","146","463882","0.0-142.0","fmh9u539fx","NaN","<div style=""width:500px;"">
                                <p style=""font-size:50px; font-weight:bold;""
                                ></p>
                                <div style=""width:240px; margin: auto;"">
                                    <img src=""images/D111.png"" style= ""width:200px""alt=""img"">
                                </div>
                            </div>","49","","0","images/D111.png","","","","[""Hard"",""Soft""]"
"","","","","","html-slider-response","147","466639","0.0-143.0","fmh9u539fx","NaN","<div style=""width:500px;"">
                                <p style=""font-size:50px; font-weight:bold;""
                                ></p>
                                <div style=""width:240px; margin: auto;"">
                                    <img src=""images/D106.png"" style= ""width:200px""alt=""img"">
                                </div>
                            </div>","-43","","0","images/D106.png","","","","[""Hard"",""Soft""]"
"","","","","","html-slider-response","148","469014","0.0-144.0","fmh9u539fx","NaN","<div style=""width:500px;"">
                                <p style=""font-size:50px; font-weight:bold;""
                                ></p>
                                <div style=""width:240px; margin: auto;"">
                                    <img src=""images/D22.png"" style= ""width:200px""alt=""img"">
                                </div>
                            </div>","114","","0","images/D22.png","","","","[""Hard"",""Soft""]"
"","","","","","html-slider-response","149","471717","0.0-145.0","fmh9u539fx","NaN","<div style=""width:500px;"">
                                <p style=""font-size:50px; font-weight:bold;""
                                ></p>
                                <div style=""width:240px; margin: auto;"">
                                    <img src=""images/D95.png"" style= ""width:200px""alt=""img"">
                                </div>
                            </div>","-195","","0","images/D95.png","","","","[""Hard"",""Soft""]"
"","","","","","html-slider-response","150","475172","0.0-146.0","fmh9u539fx","NaN","<div style=""width:500px;"">
                                <p style=""font-size:50px; font-weight:bold;""
                                ></p>
                                <div style=""width:240px; margin: auto;"">
                                    <img src=""images/D81.png"" style= ""width:200px""alt=""img"">
                                </div>
                            </div>","-23","","0","images/D81.png","","","","[""Hard"",""Soft""]"
"","","","","","html-slider-response","151","477629","0.0-147.0","fmh9u539fx","NaN","<div style=""width:500px;"">
                                <p style=""font-size:50px; font-weight:bold;""
                                ></p>
                                <div style=""width:240px; margin: auto;"">
                                    <img src=""images/D96.png"" style= ""width:200px""alt=""img"">
                                </div>
                            </div>","-195","","0","images/D96.png","","","","[""Hard"",""Soft""]"
"","","","","","html-slider-response","152","480689","0.0-148.0","fmh9u539fx","NaN","<div style=""width:500px;"">
                                <p style=""font-size:50px; font-weight:bold;""
                                ></p>
                                <div style=""width:240px; margin: auto;"">
                                    <img src=""images/D37.png"" style= ""width:200px""alt=""img"">
                                </div>
                            </div>","196","","0","images/D37.png","","","","[""Hard"",""Soft""]"
"","","","","","html-slider-response","153","483691","0.0-149.0","fmh9u539fx","NaN","<div style=""width:500px;"">
                                <p style=""font-size:50px; font-weight:bold;""
                                ></p>
                                <div style=""width:240px; margin: auto;"">
                                    <img src=""images/D103.png"" style= ""width:200px""alt=""img"">
                                </div>
                            </div>","165","","0","images/D103.png","","","","[""Hard"",""Soft""]"
"","","","","","html-slider-response","154","485711","0.0-150.0","fmh9u539fx","NaN","<div style=""width:500px;"">
                                <p style=""font-size:50px; font-weight:bold;""
                                ></p>
                                <div style=""width:240px; margin: auto;"">
                                    <img src=""images/D104.png"" style= ""width:200px""alt=""img"">
                                </div>
                            </div>","138","","0","images/D104.png","","","","[""Hard"",""Soft""]"
"","","","","","html-slider-response","155","489908","0.0-151.0","fmh9u539fx","NaN","<div style=""width:500px;"">
                                <p style=""font-size:50px; font-weight:bold;""
                                ></p>
                                <div style=""width:240px; margin: auto;"">
                                    <img src=""images/D20.png"" style= ""width:200px""alt=""img"">
                                </div>
                            </div>","36","","0","images/D20.png","","","","[""Hard"",""Soft""]"
"","","","","","html-slider-response","156","493010","0.0-152.0","fmh9u539fx","NaN","<div style=""width:500px;"">
                                <p style=""font-size:50px; font-weight:bold;""
                                ></p>
                                <div style=""width:240px; margin: auto;"">
                                    <img src=""images/D85.png"" style= ""width:200px""alt=""img"">
                                </div>
                            </div>","18","","0","images/D85.png","","","","[""Hard"",""Soft""]"
"","","","","","html-slider-response","157","495430","0.0-153.0","fmh9u539fx","NaN","<div style=""width:500px;"">
                                <p style=""font-size:50px; font-weight:bold;""
                                ></p>
                                <div style=""width:240px; margin: auto;"">
                                    <img src=""images/D4.png"" style= ""width:200px""alt=""img"">
                                </div>
                            </div>","85","","0","images/D4.png","","","","[""Hard"",""Soft""]"
"","","","","","html-slider-response","158","498495","0.0-154.0","fmh9u539fx","NaN","<div style=""width:500px;"">
                                <p style=""font-size:50px; font-weight:bold;""
                                ></p>
                                <div style=""width:240px; margin: auto;"">
                                    <img src=""images/D77.png"" style= ""width:200px""alt=""img"">
                                </div>
                            </div>","21","","0","images/D77.png","","","","[""Hard"",""Soft""]"
"","","","","","html-slider-response","159","501072","0.0-155.0","fmh9u539fx","NaN","<div style=""width:500px;"">
                                <p style=""font-size:50px; font-weight:bold;""
                                ></p>
                                <div style=""width:240px; margin: auto;"">
                                    <img src=""images/D8.png"" style= ""width:200px""alt=""img"">
                                </div>
                            </div>","190","","0","images/D8.png","","","","[""Hard"",""Soft""]"
"","","","","","html-slider-response","160","503834","0.0-156.0","fmh9u539fx","NaN","<div style=""width:500px;"">
                                <p style=""font-size:50px; font-weight:bold;""
                                ></p>
                                <div style=""width:240px; margin: auto;"">
                                    <img src=""images/D16.png"" style= ""width:200px""alt=""img"">
                                </div>
                            </div>","-62","","0","images/D16.png","","","","[""Hard"",""Soft""]"
"","","","","","html-slider-response","161","505951","0.0-157.0","fmh9u539fx","NaN","<div style=""width:500px;"">
                                <p style=""font-size:50px; font-weight:bold;""
                                ></p>
                                <div style=""width:240px; margin: auto;"">
                                    <img src=""images/D94.png"" style= ""width:200px""alt=""img"">
                                </div>
                            </div>","-163","","0","images/D94.png","","","","[""Hard"",""Soft""]"
"","","","","","html-slider-response","162","509154","0.0-158.0","fmh9u539fx","NaN","<div style=""width:500px;"">
                                <p style=""font-size:50px; font-weight:bold;""
                                ></p>
                                <div style=""width:240px; margin: auto;"">
                                    <img src=""images/D76.png"" style= ""width:200px""alt=""img"">
                                </div>
                            </div>","21","","0","images/D76.png","","","","[""Hard"",""Soft""]"
"","","","","","html-slider-response","163","511094","0.0-159.0","fmh9u539fx","NaN","<div style=""width:500px;"">
                                <p style=""font-size:50px; font-weight:bold;""
                                ></p>
                                <div style=""width:240px; margin: auto;"">
                                    <img src=""images/D34.png"" style= ""width:200px""alt=""img"">
                                </div>
                            </div>","87","","0","images/D34.png","","","","[""Hard"",""Soft""]"
"","","","","","html-slider-response","164","513989","0.0-160.0","fmh9u539fx","NaN","<div style=""width:500px;"">
                                <p style=""font-size:50px; font-weight:bold;""
                                ></p>
                                <div style=""width:240px; margin: auto;"">
                                    <img src=""images/D18.png"" style= ""width:200px""alt=""img"">
                                </div>
                            </div>","-59","","0","images/D18.png","","","","[""Hard"",""Soft""]"
"","","","","","html-slider-response","165","516638","0.0-161.0","fmh9u539fx","NaN","<div style=""width:500px;"">
                                <p style=""font-size:50px; font-weight:bold;""
                                ></p>
                                <div style=""width:240px; margin: auto;"">
                                    <img src=""images/D32.png"" style= ""width:200px""alt=""img"">
                                </div>
                            </div>","70","","0","images/D32.png","","","","[""Hard"",""Soft""]"
"","","","","","html-slider-response","166","519764","0.0-162.0","fmh9u539fx","NaN","<div style=""width:500px;"">
                                <p style=""font-size:50px; font-weight:bold;""
                                ></p>
                                <div style=""width:240px; margin: auto;"">
                                    <img src=""images/D49.png"" style= ""width:200px""alt=""img"">
                                </div>
                            </div>","24","","0","images/D49.png","","","","[""Hard"",""Soft""]"
"","","","","","html-slider-response","167","522307","0.0-163.0","fmh9u539fx","NaN","<div style=""width:500px;"">
                                <p style=""font-size:50px; font-weight:bold;""
                                ></p>
                                <div style=""width:240px; margin: auto;"">
                                    <img src=""images/D24.png"" style= ""width:200px""alt=""img"">
                                </div>
                            </div>","77","","0","images/D24.png","","","","[""Hard"",""Soft""]"
"","","","","","html-slider-response","168","524936","0.0-164.0","fmh9u539fx","NaN","<div style=""width:500px;"">
                                <p style=""font-size:50px; font-weight:bold;""
                                ></p>
                                <div style=""width:240px; margin: auto;"">
                                    <img src=""images/D92.png"" style= ""width:200px""alt=""img"">
                                </div>
                            </div>","-61","","0","images/D92.png","","","","[""Hard"",""Soft""]"
"","","","","","html-slider-response","169","528451","0.0-165.0","fmh9u539fx","NaN","<div style=""width:500px;"">
                                <p style=""font-size:50px; font-weight:bold;""
                                ></p>
                                <div style=""width:240px; margin: auto;"">
                                    <img src=""images/D17.png"" style= ""width:200px""alt=""img"">
                                </div>
                            </div>","14","","0","images/D17.png","","","","[""Hard"",""Soft""]"
"","","","","","html-slider-response","170","531333","0.0-166.0","fmh9u539fx","NaN","<div style=""width:500px;"">
                                <p style=""font-size:50px; font-weight:bold;""
                                ></p>
                                <div style=""width:240px; margin: auto;"">
                                    <img src=""images/D46.png"" style= ""width:200px""alt=""img"">
                                </div>
                            </div>","92","","0","images/D46.png","","","","[""Hard"",""Soft""]"
"","","","","","html-slider-response","171","534122","0.0-167.0","fmh9u539fx","NaN","<div style=""width:500px;"">
                                <p style=""font-size:50px; font-weight:bold;""
                                ></p>
                                <div style=""width:240px; margin: auto;"">
                                    <img src=""images/D55.png"" style= ""width:200px""alt=""img"">
                                </div>
                            </div>","22","","0","images/D55.png","","","","[""Hard"",""Soft""]"
"","","","","","html-slider-response","172","536443","0.0-168.0","fmh9u539fx","NaN","<div style=""width:500px;"">
                                <p style=""font-size:50px; font-weight:bold;""
                                ></p>
                                <div style=""width:240px; margin: auto;"">
                                    <img src=""images/D9.png"" style= ""width:200px""alt=""img"">
                                </div>
                            </div>","77","","0","images/D9.png","","","","[""Hard"",""Soft""]"
"","","","","","html-slider-response","173","538501","0.0-169.0","fmh9u539fx","NaN","<div style=""width:500px;"">
                                <p style=""font-size:50px; font-weight:bold;""
                                ></p>
                                <div style=""width:240px; margin: auto;"">
                                    <img src=""images/D36.png"" style= ""width:200px""alt=""img"">
                                </div>
                            </div>","125","","0","images/D36.png","","","","[""Hard"",""Soft""]"
"","","","","","html-slider-response","174","541105","0.0-170.0","fmh9u539fx","NaN","<div style=""width:500px;"">
                                <p style=""font-size:50px; font-weight:bold;""
                                ></p>
                                <div style=""width:240px; margin: auto;"">
                                    <img src=""images/D25.png"" style= ""width:200px""alt=""img"">
                                </div>
                            </div>","-194","","0","images/D25.png","","","","[""Hard"",""Soft""]"
"","","","","","html-slider-response","175","544013","0.0-171.0","fmh9u539fx","NaN","<div style=""width:500px;"">
                                <p style=""font-size:50px; font-weight:bold;""
                                ></p>
                                <div style=""width:240px; margin: auto;"">
                                    <img src=""images/D65.png"" style= ""width:200px""alt=""img"">
                                </div>
                            </div>","-47","","0","images/D65.png","","","","[""Hard"",""Soft""]"
"","","","","","html-slider-response","176","546556","0.0-172.0","fmh9u539fx","NaN","<div style=""width:500px;"">
                                <p style=""font-size:50px; font-weight:bold;""
                                ></p>
                                <div style=""width:240px; margin: auto;"">
                                    <img src=""images/D1.png"" style= ""width:200px""alt=""img"">
                                </div>
                            </div>","-101","","0","images/D1.png","","","","[""Hard"",""Soft""]"
"","","","","","html-slider-response","177","549542","0.0-173.0","fmh9u539fx","NaN","<div style=""width:500px;"">
                                <p style=""font-size:50px; font-weight:bold;""
                                ></p>
                                <div style=""width:240px; margin: auto;"">
                                    <img src=""images/D82.png"" style= ""width:200px""alt=""img"">
                                </div>
                            </div>","-125","","0","images/D82.png","","","","[""Hard"",""Soft""]"
"","","","","","html-slider-response","178","552932","0.0-174.0","fmh9u539fx","NaN","<div style=""width:500px;"">
                                <p style=""font-size:50px; font-weight:bold;""
                                ></p>
                                <div style=""width:240px; margin: auto;"">
                                    <img src=""images/D56.png"" style= ""width:200px""alt=""img"">
                                </div>
                            </div>","41","","0","images/D56.png","","","","[""Hard"",""Soft""]"
"","","","","","html-slider-response","179","556701","0.0-175.0","fmh9u539fx","NaN","<div style=""width:500px;"">
                                <p style=""font-size:50px; font-weight:bold;""
                                ></p>
                                <div style=""width:240px; margin: auto;"">
                                    <img src=""images/D51.png"" style= ""width:200px""alt=""img"">
                                </div>
                            </div>","-26","","0","images/D51.png","","","","[""Hard"",""Soft""]"
"","","","","","html-slider-response","180","559802","0.0-176.0","fmh9u539fx","NaN","<div style=""width:500px;"">
                                <p style=""font-size:50px; font-weight:bold;""
                                ></p>
                                <div style=""width:240px; margin: auto;"">
                                    <img src=""images/D74.png"" style= ""width:200px""alt=""img"">
                                </div>
                            </div>","94","","0","images/D74.png","","","","[""Hard"",""Soft""]"
"","","","","","html-slider-response","181","563127","0.0-177.0","fmh9u539fx","NaN","<div style=""width:500px;"">
                                <p style=""font-size:50px; font-weight:bold;""
                                ></p>
                                <div style=""width:240px; margin: auto;"">
                                    <img src=""images/D29.png"" style= ""width:200px""alt=""img"">
                                </div>
                            </div>","32","","0","images/D29.png","","","","[""Hard"",""Soft""]"
"","","","","","html-slider-response","182","565923","0.0-178.0","fmh9u539fx","NaN","<div style=""width:500px;"">
                                <p style=""font-size:50px; font-weight:bold;""
                                ></p>
                                <div style=""width:240px; margin: auto;"">
                                    <img src=""images/D3.png"" style= ""width:200px""alt=""img"">
                                </div>
                            </div>","72","","0","images/D3.png","","","","[""Hard"",""Soft""]"
"","","","","","html-slider-response","183","568334","0.0-179.0","fmh9u539fx","NaN","<div style=""width:500px;"">
                                <p style=""font-size:50px; font-weight:bold;""
                                ></p>
                                <div style=""width:240px; margin: auto;"">
                                    <img src=""images/D26.png"" style= ""width:200px""alt=""img"">
                                </div>
                            </div>","-176","","0","images/D26.png","","","","[""Hard"",""Soft""]"
"","","","","","html-slider-response","184","571267","0.0-180.0","fmh9u539fx","NaN","<div style=""width:500px;"">
                                <p style=""font-size:50px; font-weight:bold;""
                                ></p>
                                <div style=""width:240px; margin: auto;"">
                                    <img src=""images/D79.png"" style= ""width:200px""alt=""img"">
                                </div>
                            </div>","30","","0","images/D79.png","","","","[""Hard"",""Soft""]"
"","","","","","html-slider-response","185","573544","0.0-181.0","fmh9u539fx","NaN","<div style=""width:500px;"">
                                <p style=""font-size:50px; font-weight:bold;""
                                ></p>
                                <div style=""width:240px; margin: auto;"">
                                    <img src=""images/D52.png"" style= ""width:200px""alt=""img"">
                                </div>
                            </div>","54","","0","images/D52.png","","","","[""Hard"",""Soft""]"
"","","","","","html-slider-response","186","576308","0.0-182.0","fmh9u539fx","NaN","<div style=""width:500px;"">
                                <p style=""font-size:50px; font-weight:bold;""
                                ></p>
                                <div style=""width:240px; margin: auto;"">
                                    <img src=""images/D75.png"" style= ""width:200px""alt=""img"">
                                </div>
