"success","timeout","failed_images","failed_audio","failed_video","trial_type","trial_index","time_elapsed","internal_node_id","subject_id","rt","stimulus","response","question_order","slider_start","image_path","practiceTrial","practiceTrialNum","correct","slider_labels"
"true","false","[]","[]","[]","preload","0","1169","0.0-0.0","g55dvlt4u1","","","","","","","","","",""
"","","","","","html-button-response","1","4372","0.0-1.0","g55dvlt4u1","3201","<div style='text-align:center; font-size:20px; line-height:25px; width: 1200px;'>
                Welcome to our experiment! <br>
                <br>At the bottom of this screen, you will see a button that says 'Begin Experiment.
                <br>Please only click that button when you are ready to complete the 25 minute experiment in one sitting. <br>
                <br> Once you click that button, it will not be possible to restart the experiment. <br><br>","0","","","","","","",""
"true","","","","","fullscreen","2","7301","0.0-2.0","g55dvlt4u1","1925","","","","","","","","",""
"","","","","","survey-multi-select","3","14612","0.0-3.0","g55dvlt4u1","7304","","{""Consent"":[""<strong>I consent</strong>""]}","[0]","","","","","",""
"","","","","","html-button-response","4","15720","0.0-4.0","g55dvlt4u1","1105","Welcome! <p> This experiment involves two parts: demographic information, followed by the experimental task.<p> It will take about 25 minutes to complete both parts.","0","","","","","","",""
"","","","","","survey-text","5","32079","0.0-5.0","g55dvlt4u1","16355","","{""Age"":""19"",""Gender"":""Male"",""Race/ethnicity"":""Caucasian/ African American""}","","","","","","",""
"","","","","","html-slider-response","6","49930","0.0-6.0","g55dvlt4u1","17847","
                <div style='text-align:center; height: auto; margin-left=-100px; margin-bottom: -20px; font-size:20px; line-height:5px; width: 1200px;'>
                    <br>During this experiment, you will see a series of textures, one at a time, like the ones below: 
                </div>
                    <br>
                    <br>
                    <img src=""anchoring_visual_textures.png"" alt=""img"" style=""max-width:1200px; margin-left: -10px;"">
                </div>
                <div style=""clear: both;""></div>
                </div>
                    <div style='text-align:center; margin-left=-100px; font-size:20px; line-height:20px; width: 1200px; margin-top: -50px;'>
                    
                    <br> For each texture, you will be asked to rate where you think it falls on each of the response scales with the following endpoints:
                    </div>
                            <div style=""text-align: center; width: 1400px; "">
                                <p style=""font-size:20px; line-height:5px; ""><b>Blobby</b> versus <b>Stripey</b></p>
                                <p style=""font-size:20px; line-height:5px; ""><b>Rounded</b> versus <b>Rectangular</b></p>
                                <p style=""font-size:20px;line-height:5px;""><b>Coarse</b> versus <b>Fine</b></p>
                                <p style=""font-size:20px;line-height:5px; ""><b>Rough</b> versus <b>Smooth</b></p>
                                <p style=""font-size:20px;line-height:5px; ""><b>Random</b> versus <b>Non-Random</b></p>
                                <p style=""font-size:20px;line-height:5px;""><b>Hard</b> versus <b>Soft</b></p>
                            </div>
                            <div style='text-align:center; font-size:20px; line-height:20px; width: 1400px;'>
                    
                    Each trial will include one texture and one response scale. You will be asked to make your rating by sliding the cursor along a slider response scale like the one below.
                    <br><br> Before beginning, please look at the textures and scales. For each scale, think about the texture you associate most with the left endpoint. When you see that texture for that response scale, please click near the left of the scale.
                    <br><br> Now, please think about the texture you associate most with the right endpoint of each scale. When you see that texture for that response scale, please click near the right of the scale. 
                    <br><br> If you think a texture is not strongly associated with either endpoint of the scale, please click near the midpoint of the scale. Please use the full range of the scale. 
                    <br><br> You will be asked to rate each texture for a given scale before moving on to the next scale.
                    <br><br> Please press the 'Continue' button for instructions on how to use the slider.                     <br><br>
                ","0","","0","visual_textures_anchoring.png","true","","",""
"","","","","","html-button-response","7","61226","0.0-7.0","g55dvlt4u1","11295","<div style=""width:1200px; margin-top:-150px;""><p style=""text-align:center; font-size:24px;"">To move the slider, click and drag your cursor to the location of the scale where you would like to make your rating and then let go. <br><br> When you let go of the slider, your response will be recorded and the next trial will begin. <br><br><br>
                We are interested in your initial impressions of each texture and scale, so please go with your first intuition. <br><br>
                Before you begin the experiment, there will be four training trials for you to practice using the scale. <br><br><br><br></div>
                <div style=""width:1200px;""><p style=""text-align:center; font-size:20px;"">When you are ready to start the training trials, please click ""Continue"".</p></div>","0","","","","","","",""
"","","","","","html-slider-response","8","64487","0.0-8.0-0.0","g55dvlt4u1","NaN","<div style=""width:500px;"">
                                <p style=""font-size:25px;"">Please move the slider all the way to the <br> right endpoint of the scale</p>

                                </div>
                            </div>","200","","0","","true","0","true",""
"","","","","","html-button-response","9","66214","0.0-8.0-1.0","g55dvlt4u1","1224","<p align='center'><b>Good job!</b> Click on 'Continue' to proceed.</p>","0","","","","","","",""
"","","","","","html-slider-response","10","67754","0.0-9.0-0.0","g55dvlt4u1","NaN","<div style=""width:500px;"">
                                <p style=""font-size:25px;"">Please move the slider all the way to the <br> left endpoint of the scale</p>

                                </div>
                            </div>","-200","","0","","true","1","true",""
"","","","","","html-button-response","11","69048","0.0-9.0-1.0","g55dvlt4u1","791","<p align='center'><b>Good job!</b> Click on 'Continue' to proceed.</p>","0","","","","","","",""
"","","","","","html-slider-response","12","70972","0.0-10.0-0.0","g55dvlt4u1","NaN","<div style=""width:500px;"">
                                <p style=""font-size:25px;"">Please move the slider halfway between the center and right endpoint of the scale</p>

                                </div>
                            </div>","2","","0","","true","2","false",""
"","","","","","html-button-response","13","75415","0.0-10.0-1.0","g55dvlt4u1","3941","<p align='center'><b>Not quite!</b> The slider was not placed near the instructed locattion. Click on 'Continue' to try again. </p>","0","","","","","","",""
"","","","","","html-slider-response","14","78162","0.0-10.1-0.1","g55dvlt4u1","NaN","<div style=""width:500px;"">
                                <p style=""font-size:25px;"">Please move the slider halfway between the center and right endpoint of the scale</p>

                                </div>
                            </div>","110","","0","","true","2","true",""
"","","","","","html-button-response","15","79494","0.0-10.1-1.1","g55dvlt4u1","827","<p align='center'><b>Good job!</b> Click on 'Continue' to proceed.</p>","0","","","","","","",""
"","","","","","html-slider-response","16","81001","0.0-11.0-0.0","g55dvlt4u1","NaN","<div style=""width:500px;"">
                                <p style=""font-size:25px;"">Please move the slider halfway between the center and left endpoint of the scale</p>

                                </div>
                            </div>","-107","","0","","true","3","true",""
"","","","","","html-button-response","17","82278","0.0-11.0-1.0","g55dvlt4u1","774","<p align='center'><b>Good job!</b> Click on 'Continue' to proceed.</p>","0","","","","","","",""
"","","","","","html-button-response","18","83431","0.0-12.0","g55dvlt4u1","1152","<div style=""width:800px; margin-top:-300px;""><p style=""text-align:center; font-size:22px; line-height:25px;""""> Great job! You've completed the practice trials.</div>
                     <div style=""width:800px; margin-top:-20px;""><p style=""text-align:center""><br><br> In the following trials, you will be asked to rate textures on each scale one-by-one. <br> You will be given opportunities to take breaks when you have completed each block of trials. There are six total blocks of trials. <br><br> Please click continue to begin the main task.<br><br><br> </div>","0","","","","","","",""
"","","","","","html-button-response","19","84816","0.0-13.0","g55dvlt4u1","1383","In the following trials, you will be asked to rate textures on the scale <b>Rough</b> versus <b>Smooth</b>. Please click 'Continue' when you are ready proceed.","0","","","","","","",""
"","","","","","html-slider-response","20","86796","0.0-14.0","g55dvlt4u1","NaN","<div style=""width:500px;"">
                                <p style=""font-size:50px; font-weight:bold;""
                                ></p>
                                <div style=""width:240px; margin: auto;"">
                                    <img src=""images/D49.png"" style= ""width:200px""alt=""img"">
                                </div>
                            </div>","200","","0","images/D49.png","","","","[""Rough"",""Smooth""]"
"","","","","","html-slider-response","21","89428","0.0-15.0","g55dvlt4u1","NaN","<div style=""width:500px;"">
                                <p style=""font-size:50px; font-weight:bold;""
                                ></p>
                                <div style=""width:240px; margin: auto;"">
                                    <img src=""images/D94.png"" style= ""width:200px""alt=""img"">
                                </div>
                            </div>","56","","0","images/D94.png","","","","[""Rough"",""Smooth""]"
"","","","","","html-slider-response","22","92974","0.0-16.0","g55dvlt4u1","NaN","<div style=""width:500px;"">
                                <p style=""font-size:50px; font-weight:bold;""
                                ></p>
                                <div style=""width:240px; margin: auto;"">
                                    <img src=""images/D83.png"" style= ""width:200px""alt=""img"">
                                </div>
                            </div>","-86","","0","images/D83.png","","","","[""Rough"",""Smooth""]"
"","","","","","html-slider-response","23","94815","0.0-17.0","g55dvlt4u1","NaN","<div style=""width:500px;"">
                                <p style=""font-size:50px; font-weight:bold;""
                                ></p>
                                <div style=""width:240px; margin: auto;"">
                                    <img src=""images/D26.png"" style= ""width:200px""alt=""img"">
                                </div>
                            </div>","98","","0","images/D26.png","","","","[""Rough"",""Smooth""]"
"","","","","","html-slider-response","24","96877","0.0-18.0","g55dvlt4u1","NaN","<div style=""width:500px;"">
                                <p style=""font-size:50px; font-weight:bold;""
                                ></p>
                                <div style=""width:240px; margin: auto;"">
                                    <img src=""images/D111.png"" style= ""width:200px""alt=""img"">
                                </div>
                            </div>","-175","","0","images/D111.png","","","","[""Rough"",""Smooth""]"
"","","","","","html-slider-response","25","98985","0.0-19.0","g55dvlt4u1","NaN","<div style=""width:500px;"">
                                <p style=""font-size:50px; font-weight:bold;""
                                ></p>
                                <div style=""width:240px; margin: auto;"">
                                    <img src=""images/D11.png"" style= ""width:200px""alt=""img"">
                                </div>
                            </div>","-11","","0","images/D11.png","","","","[""Rough"",""Smooth""]"
"","","","","","html-slider-response","26","101009","0.0-20.0","g55dvlt4u1","NaN","<div style=""width:500px;"">
                                <p style=""font-size:50px; font-weight:bold;""
                                ></p>
                                <div style=""width:240px; margin: auto;"">
                                    <img src=""images/D16.png"" style= ""width:200px""alt=""img"">
                                </div>
                            </div>","-40","","0","images/D16.png","","","","[""Rough"",""Smooth""]"
"","","","","","html-slider-response","27","103357","0.0-21.0","g55dvlt4u1","NaN","<div style=""width:500px;"">
                                <p style=""font-size:50px; font-weight:bold;""
                                ></p>
                                <div style=""width:240px; margin: auto;"">
                                    <img src=""images/D68.png"" style= ""width:200px""alt=""img"">
                                </div>
                            </div>","17","","0","images/D68.png","","","","[""Rough"",""Smooth""]"
"","","","","","html-slider-response","28","105711","0.0-22.0","g55dvlt4u1","NaN","<div style=""width:500px;"">
                                <p style=""font-size:50px; font-weight:bold;""
                                ></p>
                                <div style=""width:240px; margin: auto;"">
                                    <img src=""images/D103.png"" style= ""width:200px""alt=""img"">
                                </div>
                            </div>","20","","0","images/D103.png","","","","[""Rough"",""Smooth""]"
"","","","","","html-slider-response","29","107901","0.0-23.0","g55dvlt4u1","NaN","<div style=""width:500px;"">
                                <p style=""font-size:50px; font-weight:bold;""
                                ></p>
                                <div style=""width:240px; margin: auto;"">
                                    <img src=""images/D84.png"" style= ""width:200px""alt=""img"">
                                </div>
                            </div>","-114","","0","images/D84.png","","","","[""Rough"",""Smooth""]"
"","","","","","html-slider-response","30","110367","0.0-24.0","g55dvlt4u1","NaN","<div style=""width:500px;"">
                                <p style=""font-size:50px; font-weight:bold;""
                                ></p>
                                <div style=""width:240px; margin: auto;"">
                                    <img src=""images/D47.png"" style= ""width:200px""alt=""img"">
                                </div>
                            </div>","178","","0","images/D47.png","","","","[""Rough"",""Smooth""]"
"","","","","","html-slider-response","31","112392","0.0-25.0","g55dvlt4u1","NaN","<div style=""width:500px;"">
                                <p style=""font-size:50px; font-weight:bold;""
                                ></p>
                                <div style=""width:240px; margin: auto;"">
                                    <img src=""images/D24.png"" style= ""width:200px""alt=""img"">
                                </div>
                            </div>","-56","","0","images/D24.png","","","","[""Rough"",""Smooth""]"
"","","","","","html-slider-response","32","115730","0.0-26.0","g55dvlt4u1","NaN","<div style=""width:500px;"">
                                <p style=""font-size:50px; font-weight:bold;""
                                ></p>
                                <div style=""width:240px; margin: auto;"">
                                    <img src=""images/D37.png"" style= ""width:200px""alt=""img"">
                                </div>
                            </div>","84","","0","images/D37.png","","","","[""Rough"",""Smooth""]"
"","","","","","html-slider-response","33","117818","0.0-27.0","g55dvlt4u1","NaN","<div style=""width:500px;"">
                                <p style=""font-size:50px; font-weight:bold;""
                                ></p>
                                <div style=""width:240px; margin: auto;"">
                                    <img src=""images/D18.png"" style= ""width:200px""alt=""img"">
                                </div>
                            </div>","-38","","0","images/D18.png","","","","[""Rough"",""Smooth""]"
"","","","","","html-slider-response","34","119676","0.0-28.0","g55dvlt4u1","NaN","<div style=""width:500px;"">
                                <p style=""font-size:50px; font-weight:bold;""
                                ></p>
                                <div style=""width:240px; margin: auto;"">
                                    <img src=""images/D57.png"" style= ""width:200px""alt=""img"">
                                </div>
                            </div>","-46","","0","images/D57.png","","","","[""Rough"",""Smooth""]"
"","","","","","html-slider-response","35","121867","0.0-29.0","g55dvlt4u1","NaN","<div style=""width:500px;"">
                                <p style=""font-size:50px; font-weight:bold;""
                                ></p>
                                <div style=""width:240px; margin: auto;"">
                                    <img src=""images/D76.png"" style= ""width:200px""alt=""img"">
                                </div>
                            </div>","-100","","0","images/D76.png","","","","[""Rough"",""Smooth""]"
"","","","","","html-slider-response","36","123792","0.0-30.0","g55dvlt4u1","NaN","<div style=""width:500px;"">
                                <p style=""font-size:50px; font-weight:bold;""
                                ></p>
                                <div style=""width:240px; margin: auto;"">
                                    <img src=""images/D29.png"" style= ""width:200px""alt=""img"">
                                </div>
                            </div>","-177","","0","images/D29.png","","","","[""Rough"",""Smooth""]"
"","","","","","html-slider-response","37","125942","0.0-31.0","g55dvlt4u1","NaN","<div style=""width:500px;"">
                                <p style=""font-size:50px; font-weight:bold;""
                                ></p>
                                <div style=""width:240px; margin: auto;"">
                                    <img src=""images/D80.png"" style= ""width:200px""alt=""img"">
                                </div>
                            </div>","-86","","0","images/D80.png","","","","[""Rough"",""Smooth""]"
"","","","","","html-slider-response","38","127854","0.0-32.0","g55dvlt4u1","NaN","<div style=""width:500px;"">
                                <p style=""font-size:50px; font-weight:bold;""
                                ></p>
                                <div style=""width:240px; margin: auto;"">
                                    <img src=""images/D32.png"" style= ""width:200px""alt=""img"">
                                </div>
                            </div>","-66","","0","images/D32.png","","","","[""Rough"",""Smooth""]"
"","","","","","html-slider-response","39","129778","0.0-33.0","g55dvlt4u1","NaN","<div style=""width:500px;"">
                                <p style=""font-size:50px; font-weight:bold;""
                                ></p>
                                <div style=""width:240px; margin: auto;"">
                                    <img src=""images/D102.png"" style= ""width:200px""alt=""img"">
                                </div>
                            </div>","72","","0","images/D102.png","","","","[""Rough"",""Smooth""]"
"","","","","","html-slider-response","40","131848","0.0-34.0","g55dvlt4u1","NaN","<div style=""width:500px;"">
                                <p style=""font-size:50px; font-weight:bold;""
                                ></p>
                                <div style=""width:240px; margin: auto;"">
                                    <img src=""images/D25.png"" style= ""width:200px""alt=""img"">
                                </div>
                            </div>","109","","0","images/D25.png","","","","[""Rough"",""Smooth""]"
"","","","","","html-slider-response","41","134326","0.0-35.0","g55dvlt4u1","NaN","<div style=""width:500px;"">
                                <p style=""font-size:50px; font-weight:bold;""
                                ></p>
                                <div style=""width:240px; margin: auto;"">
                                    <img src=""images/D52.png"" style= ""width:200px""alt=""img"">
                                </div>
                            </div>","86","","0","images/D52.png","","","","[""Rough"",""Smooth""]"
"","","","","","html-slider-response","42","137403","0.0-36.0","g55dvlt4u1","NaN","<div style=""width:500px;"">
                                <p style=""font-size:50px; font-weight:bold;""
                                ></p>
                                <div style=""width:240px; margin: auto;"">
                                    <img src=""images/D55.png"" style= ""width:200px""alt=""img"">
                                </div>
                            </div>","-81","","0","images/D55.png","","","","[""Rough"",""Smooth""]"
"","","","","","html-slider-response","43","140560","0.0-37.0","g55dvlt4u1","NaN","<div style=""width:500px;"">
                                <p style=""font-size:50px; font-weight:bold;""
                                ></p>
                                <div style=""width:240px; margin: auto;"">
                                    <img src=""images/D66.png"" style= ""width:200px""alt=""img"">
                                </div>
                            </div>","131","","0","images/D66.png","","","","[""Rough"",""Smooth""]"
"","","","","","html-slider-response","44","142745","0.0-38.0","g55dvlt4u1","NaN","<div style=""width:500px;"">
                                <p style=""font-size:50px; font-weight:bold;""
                                ></p>
                                <div style=""width:240px; margin: auto;"">
                                    <img src=""images/D35.png"" style= ""width:200px""alt=""img"">
                                </div>
                            </div>","-53","","0","images/D35.png","","","","[""Rough"",""Smooth""]"
"","","","","","html-slider-response","45","144641","0.0-39.0","g55dvlt4u1","NaN","<div style=""width:500px;"">
                                <p style=""font-size:50px; font-weight:bold;""
                                ></p>
                                <div style=""width:240px; margin: auto;"">
                                    <img src=""images/D21.png"" style= ""width:200px""alt=""img"">
                                </div>
                            </div>","-106","","0","images/D21.png","","","","[""Rough"",""Smooth""]"
"","","","","","html-slider-response","46","146793","0.0-40.0","g55dvlt4u1","NaN","<div style=""width:500px;"">
                                <p style=""font-size:50px; font-weight:bold;""
                                ></p>
                                <div style=""width:240px; margin: auto;"">
                                    <img src=""images/D105.png"" style= ""width:200px""alt=""img"">
                                </div>
                            </div>","-72","","0","images/D105.png","","","","[""Rough"",""Smooth""]"
"","","","","","html-slider-response","47","149867","0.0-41.0","g55dvlt4u1","NaN","<div style=""width:500px;"">
                                <p style=""font-size:50px; font-weight:bold;""
                                ></p>
                                <div style=""width:240px; margin: auto;"">
                                    <img src=""images/D20.png"" style= ""width:200px""alt=""img"">
                                </div>
                            </div>","-78","","0","images/D20.png","","","","[""Rough"",""Smooth""]"
"","","","","","html-slider-response","48","152067","0.0-42.0","g55dvlt4u1","NaN","<div style=""width:500px;"">
                                <p style=""font-size:50px; font-weight:bold;""
                                ></p>
                                <div style=""width:240px; margin: auto;"">
                                    <img src=""images/D3.png"" style= ""width:200px""alt=""img"">
                                </div>
                            </div>","-82","","0","images/D3.png","","","","[""Rough"",""Smooth""]"
"","","","","","html-slider-response","49","154060","0.0-43.0","g55dvlt4u1","NaN","<div style=""width:500px;"">
                                <p style=""font-size:50px; font-weight:bold;""
                                ></p>
                                <div style=""width:240px; margin: auto;"">
                                    <img src=""images/D46.png"" style= ""width:200px""alt=""img"">
                                </div>
                            </div>","103","","0","images/D46.png","","","","[""Rough"",""Smooth""]"
"","","","","","html-slider-response","50","156014","0.0-44.0","g55dvlt4u1","NaN","<div style=""width:500px;"">
                                <p style=""font-size:50px; font-weight:bold;""
                                ></p>
                                <div style=""width:240px; margin: auto;"">
                                    <img src=""images/D65.png"" style= ""width:200px""alt=""img"">
                                </div>
                            </div>","-79","","0","images/D65.png","","","","[""Rough"",""Smooth""]"
"","","","","","html-slider-response","51","157863","0.0-45.0","g55dvlt4u1","NaN","<div style=""width:500px;"">
                                <p style=""font-size:50px; font-weight:bold;""
                                ></p>
                                <div style=""width:240px; margin: auto;"">
                                    <img src=""images/D36.png"" style= ""width:200px""alt=""img"">
                                </div>
                            </div>","-143","","0","images/D36.png","","","","[""Rough"",""Smooth""]"
"","","","","","html-slider-response","52","159783","0.0-46.0","g55dvlt4u1","NaN","<div style=""width:500px;"">
                                <p style=""font-size:50px; font-weight:bold;""
                                ></p>
                                <div style=""width:240px; margin: auto;"">
                                    <img src=""images/D64.png"" style= ""width:200px""alt=""img"">
                                </div>
                            </div>","-73","","0","images/D64.png","","","","[""Rough"",""Smooth""]"
"","","","","","html-slider-response","53","161793","0.0-47.0","g55dvlt4u1","NaN","<div style=""width:500px;"">
                                <p style=""font-size:50px; font-weight:bold;""
                                ></p>
                                <div style=""width:240px; margin: auto;"">
                                    <img src=""images/D82.png"" style= ""width:200px""alt=""img"">
                                </div>
                            </div>","-95","","0","images/D82.png","","","","[""Rough"",""Smooth""]"
"","","","","","html-slider-response","54","163510","0.0-48.0","g55dvlt4u1","NaN","<div style=""width:500px;"">
                                <p style=""font-size:50px; font-weight:bold;""
                                ></p>
                                <div style=""width:240px; margin: auto;"">
                                    <img src=""images/D85.png"" style= ""width:200px""alt=""img"">
                                </div>
                            </div>","-126","","0","images/D85.png","","","","[""Rough"",""Smooth""]"
"","","","","","html-slider-response","55","166267","0.0-49.0","g55dvlt4u1","NaN","<div style=""width:500px;"">
                                <p style=""font-size:50px; font-weight:bold;""
                                ></p>
                                <div style=""width:240px; margin: auto;"">
                                    <img src=""images/D74.png"" style= ""width:200px""alt=""img"">
                                </div>
                            </div>","-70","","0","images/D74.png","","","","[""Rough"",""Smooth""]"
"","","","","","html-slider-response","56","169565","0.0-50.0","g55dvlt4u1","NaN","<div style=""width:500px;"">
                                <p style=""font-size:50px; font-weight:bold;""
                                ></p>
                                <div style=""width:240px; margin: auto;"">
                                    <img src=""images/D104.png"" style= ""width:200px""alt=""img"">
                                </div>
                            </div>","-79","","0","images/D104.png","","","","[""Rough"",""Smooth""]"
"","","","","","html-slider-response","57","171993","0.0-51.0","g55dvlt4u1","NaN","<div style=""width:500px;"">
                                <p style=""font-size:50px; font-weight:bold;""
                                ></p>
                                <div style=""width:240px; margin: auto;"">
                                    <img src=""images/D51.png"" style= ""width:200px""alt=""img"">
                                </div>
                            </div>","114","","0","images/D51.png","","","","[""Rough"",""Smooth""]"
"","","","","","html-slider-response","58","174063","0.0-52.0","g55dvlt4u1","NaN","<div style=""width:500px;"">
                                <p style=""font-size:50px; font-weight:bold;""
                                ></p>
                                <div style=""width:240px; margin: auto;"">
                                    <img src=""images/D78.png"" style= ""width:200px""alt=""img"">
                                </div>
                            </div>","-64","","0","images/D78.png","","","","[""Rough"",""Smooth""]"
"","","","","","html-slider-response","59","175767","0.0-53.0","g55dvlt4u1","NaN","<div style=""width:500px;"">
                                <p style=""font-size:50px; font-weight:bold;""
                                ></p>
                                <div style=""width:240px; margin: auto;"">
                                    <img src=""images/D81.png"" style= ""width:200px""alt=""img"">
                                </div>
                            </div>","-87","","0","images/D81.png","","","","[""Rough"",""Smooth""]"
"","","","","","html-slider-response","60","177562","0.0-54.0","g55dvlt4u1","NaN","<div style=""width:500px;"">
                                <p style=""font-size:50px; font-weight:bold;""
                                ></p>
                                <div style=""width:240px; margin: auto;"">
                                    <img src=""images/D106.png"" style= ""width:200px""alt=""img"">
                                </div>
                            </div>","91","","0","images/D106.png","","","","[""Rough"",""Smooth""]"
"","","","","","html-slider-response","61","179543","0.0-55.0","g55dvlt4u1","NaN","<div style=""width:500px;"">
                                <p style=""font-size:50px; font-weight:bold;""
                                ></p>
                                <div style=""width:240px; margin: auto;"">
                                    <img src=""images/D4.png"" style= ""width:200px""alt=""img"">
                                </div>
                            </div>","-112","","0","images/D4.png","","","","[""Rough"",""Smooth""]"
"","","","","","html-slider-response","62","181282","0.0-56.0","g55dvlt4u1","NaN","<div style=""width:500px;"">
                                <p style=""font-size:50px; font-weight:bold;""
                                ></p>
                                <div style=""width:240px; margin: auto;"">
                                    <img src=""images/D101.png"" style= ""width:200px""alt=""img"">
                                </div>
                            </div>","143","","0","images/D101.png","","","","[""Rough"",""Smooth""]"
"","","","","","html-slider-response","63","183418","0.0-57.0","g55dvlt4u1","NaN","<div style=""width:500px;"">
                                <p style=""font-size:50px; font-weight:bold;""
                                ></p>
                                <div style=""width:240px; margin: auto;"">
                                    <img src=""images/D92.png"" style= ""width:200px""alt=""img"">
                                </div>
                            </div>","-110","","0","images/D92.png","","","","[""Rough"",""Smooth""]"
"","","","","","html-slider-response","64","185899","0.0-58.0","g55dvlt4u1","NaN","<div style=""width:500px;"">
                                <p style=""font-size:50px; font-weight:bold;""
                                ></p>
                                <div style=""width:240px; margin: auto;"">
                                    <img src=""images/D14.png"" style= ""width:200px""alt=""img"">
                                </div>
                            </div>","-95","","0","images/D14.png","","","","[""Rough"",""Smooth""]"
"","","","","","html-slider-response","65","188214","0.0-59.0","g55dvlt4u1","NaN","<div style=""width:500px;"">
                                <p style=""font-size:50px; font-weight:bold;""
                                ></p>
                                <div style=""width:240px; margin: auto;"">
                                    <img src=""images/D96.png"" style= ""width:200px""alt=""img"">
                                </div>
                            </div>","-142","","0","images/D96.png","","","","[""Rough"",""Smooth""]"
"","","","","","html-slider-response","66","190326","0.0-60.0","g55dvlt4u1","NaN","<div style=""width:500px;"">
                                <p style=""font-size:50px; font-weight:bold;""
                                ></p>
                                <div style=""width:240px; margin: auto;"">
                                    <img src=""images/D56.png"" style= ""width:200px""alt=""img"">
                                </div>
                            </div>","-100","","0","images/D56.png","","","","[""Rough"",""Smooth""]"
"","","","","","html-slider-response","67","192127","0.0-61.0","g55dvlt4u1","NaN","<div style=""width:500px;"">
                                <p style=""font-size:50px; font-weight:bold;""
                                ></p>
                                <div style=""width:240px; margin: auto;"">
                                    <img src=""images/D9.png"" style= ""width:200px""alt=""img"">
                                </div>
                            </div>","-93","","0","images/D9.png","","","","[""Rough"",""Smooth""]"
"","","","","","html-slider-response","68","194041","0.0-62.0","g55dvlt4u1","NaN","<div style=""width:500px;"">
                                <p style=""font-size:50px; font-weight:bold;""
                                ></p>
                                <div style=""width:240px; margin: auto;"">
                                    <img src=""images/D87.png"" style= ""width:200px""alt=""img"">
                                </div>
                            </div>","-101","","0","images/D87.png","","","","[""Rough"",""Smooth""]"
"","","","","","html-slider-response","69","195817","0.0-63.0","g55dvlt4u1","NaN","<div style=""width:500px;"">
                                <p style=""font-size:50px; font-weight:bold;""
                                ></p>
                                <div style=""width:240px; margin: auto;"">
                                    <img src=""images/D22.png"" style= ""width:200px""alt=""img"">
                                </div>
                            </div>","-118","","0","images/D22.png","","","","[""Rough"",""Smooth""]"
"","","","","","html-slider-response","70","197664","0.0-64.0","g55dvlt4u1","NaN","<div style=""width:500px;"">
                                <p style=""font-size:50px; font-weight:bold;""
                                ></p>
                                <div style=""width:240px; margin: auto;"">
                                    <img src=""images/D19.png"" style= ""width:200px""alt=""img"">
                                </div>
                            </div>","-101","","0","images/D19.png","","","","[""Rough"",""Smooth""]"
"","","","","","html-slider-response","71","199580","0.0-65.0","g55dvlt4u1","NaN","<div style=""width:500px;"">
                                <p style=""font-size:50px; font-weight:bold;""
                                ></p>
                                <div style=""width:240px; margin: auto;"">
                                    <img src=""images/D75.png"" style= ""width:200px""alt=""img"">
                                </div>
                            </div>","108","","0","images/D75.png","","","","[""Rough"",""Smooth""]"
"","","","","","html-slider-response","72","201780","0.0-66.0","g55dvlt4u1","NaN","<div style=""width:500px;"">
                                <p style=""font-size:50px; font-weight:bold;""
                                ></p>
                                <div style=""width:240px; margin: auto;"">
                                    <img src=""images/D34.png"" style= ""width:200px""alt=""img"">
                                </div>
                            </div>","150","","0","images/D34.png","","","","[""Rough"",""Smooth""]"
"","","","","","html-slider-response","73","203692","0.0-67.0","g55dvlt4u1","NaN","<div style=""width:500px;"">
                                <p style=""font-size:50px; font-weight:bold;""
                                ></p>
                                <div style=""width:240px; margin: auto;"">
                                    <img src=""images/D6.png"" style= ""width:200px""alt=""img"">
                                </div>
                            </div>","-53","","0","images/D6.png","","","","[""Rough"",""Smooth""]"
"","","","","","html-slider-response","74","205511","0.0-68.0","g55dvlt4u1","NaN","<div style=""width:500px;"">
                                <p style=""font-size:50px; font-weight:bold;""
                                ></p>
                                <div style=""width:240px; margin: auto;"">
                                    <img src=""images/D77.png"" style= ""width:200px""alt=""img"">
                                </div>
                            </div>","-95","","0","images/D77.png","","","","[""Rough"",""Smooth""]"
"","","","","","html-slider-response","75","207629","0.0-69.0","g55dvlt4u1","NaN","<div style=""width:500px;"">
                                <p style=""font-size:50px; font-weight:bold;""
                                ></p>
                                <div style=""width:240px; margin: auto;"">
                                    <img src=""images/D48.png"" style= ""width:200px""alt=""img"">
                                </div>
                            </div>","114","","0","images/D48.png","","","","[""Rough"",""Smooth""]"
"","","","","","html-slider-response","76","209575","0.0-70.0","g55dvlt4u1","NaN","<div style=""width:500px;"">
                                <p style=""font-size:50px; font-weight:bold;""
                                ></p>
                                <div style=""width:240px; margin: auto;"">
                                    <img src=""images/D8.png"" style= ""width:200px""alt=""img"">
                                </div>
                            </div>","-78","","0","images/D8.png","","","","[""Rough"",""Smooth""]"
"","","","","","html-slider-response","77","211427","0.0-71.0","g55dvlt4u1","NaN","<div style=""width:500px;"">
                                <p style=""font-size:50px; font-weight:bold;""
                                ></p>
                                <div style=""width:240px; margin: auto;"">
                                    <img src=""images/D53.png"" style= ""width:200px""alt=""img"">
                                </div>
                            </div>","-75","","0","images/D53.png","","","","[""Rough"",""Smooth""]"
"","","","","","html-slider-response","78","213496","0.0-72.0","g55dvlt4u1","NaN","<div style=""width:500px;"">
                                <p style=""font-size:50px; font-weight:bold;""
                                ></p>
                                <div style=""width:240px; margin: auto;"">
                                    <img src=""images/D95.png"" style= ""width:200px""alt=""img"">
                                </div>
                            </div>","-84","","0","images/D95.png","","","","[""Rough"",""Smooth""]"
"","","","","","html-slider-response","79","216016","0.0-73.0","g55dvlt4u1","NaN","<div style=""width:500px;"">
                                <p style=""font-size:50px; font-weight:bold;""
                                ></p>
                                <div style=""width:240px; margin: auto;"">
                                    <img src=""images/D1.png"" style= ""width:200px""alt=""img"">
                                </div>
                            </div>","106","","0","images/D1.png","","","","[""Rough"",""Smooth""]"
"","","","","","html-slider-response","80","217800","0.0-74.0","g55dvlt4u1","NaN","<div style=""width:500px;"">
                                <p style=""font-size:50px; font-weight:bold;""
                                ></p>
                                <div style=""width:240px; margin: auto;"">
                                    <img src=""images/D17.png"" style= ""width:200px""alt=""img"">
                                </div>
                            </div>","-112","","0","images/D17.png","","","","[""Rough"",""Smooth""]"
"","","","","","html-slider-response","81","219800","0.0-75.0","g55dvlt4u1","NaN","<div style=""width:500px;"">
                                <p style=""font-size:50px; font-weight:bold;""
                                ></p>
                                <div style=""width:240px; margin: auto;"">
                                    <img src=""images/D79.png"" style= ""width:200px""alt=""img"">
                                </div>
                            </div>","-114","","0","images/D79.png","","","","[""Rough"",""Smooth""]"
"","","","","","html-button-response","82","223537","0.0-76.0","g55dvlt4u1","3235","You have completed the first block of trials out of six. Please click 'Continue' when you are ready proceed.","0","","","","","","",""
"","","","","","html-button-response","83","226652","0.0-77.0","g55dvlt4u1","3113","In the following trials, you will be asked to rate textures on the scale <b>Random</b> versus <b>Non-Random</b>. Please click 'Continue' when you are ready proceed.","0","","","","","","",""
"","","","","","html-slider-response","84","228479","0.0-78.0","g55dvlt4u1","NaN","<div style=""width:500px;"">
                                <p style=""font-size:50px; font-weight:bold;""
                                ></p>
                                <div style=""width:240px; margin: auto;"">
                                    <img src=""images/D84.png"" style= ""width:200px""alt=""img"">
                                </div>
                            </div>","-70","","0","images/D84.png","","","","[""Random"",""Non-random""]"
"","","","","","html-slider-response","85","229766","0.0-79.0","g55dvlt4u1","NaN","<div style=""width:500px;"">
                                <p style=""font-size:50px; font-weight:bold;""
                                ></p>
                                <div style=""width:240px; margin: auto;"">
                                    <img src=""images/D9.png"" style= ""width:200px""alt=""img"">
                                </div>
                            </div>","-101","","0","images/D9.png","","","","[""Random"",""Non-random""]"
"","","","","","html-slider-response","86","231536","0.0-80.0","g55dvlt4u1","NaN","<div style=""width:500px;"">
                                <p style=""font-size:50px; font-weight:bold;""
                                ></p>
                                <div style=""width:240px; margin: auto;"">
                                    <img src=""images/D102.png"" style= ""width:200px""alt=""img"">
                                </div>
                            </div>","110","","0","images/D102.png","","","","[""Random"",""Non-random""]"
"","","","","","html-slider-response","87","232909","0.0-81.0","g55dvlt4u1","NaN","<div style=""width:500px;"">
                                <p style=""font-size:50px; font-weight:bold;""
                                ></p>
                                <div style=""width:240px; margin: auto;"">
                                    <img src=""images/D18.png"" style= ""width:200px""alt=""img"">
                                </div>
                            </div>","-106","","0","images/D18.png","","","","[""Random"",""Non-random""]"
"","","","","","html-slider-response","88","234712","0.0-82.0","g55dvlt4u1","NaN","<div style=""width:500px;"">
                                <p style=""font-size:50px; font-weight:bold;""
                                ></p>
                                <div style=""width:240px; margin: auto;"">
                                    <img src=""images/D53.png"" style= ""width:200px""alt=""img"">
                                </div>
                            </div>","-87","","0","images/D53.png","","","","[""Random"",""Non-random""]"
"","","","","","html-slider-response","89","236543","0.0-83.0","g55dvlt4u1","NaN","<div style=""width:500px;"">
                                <p style=""font-size:50px; font-weight:bold;""
                                ></p>
                                <div style=""width:240px; margin: auto;"">
                                    <img src=""images/D6.png"" style= ""width:200px""alt=""img"">
                                </div>
                            </div>","102","","0","images/D6.png","","","","[""Random"",""Non-random""]"
"","","","","","html-slider-response","90","238097","0.0-84.0","g55dvlt4u1","NaN","<div style=""width:500px;"">
                                <p style=""font-size:50px; font-weight:bold;""
                                ></p>
                                <div style=""width:240px; margin: auto;"">
                                    <img src=""images/D24.png"" style= ""width:200px""alt=""img"">
                                </div>
                            </div>","-86","","0","images/D24.png","","","","[""Random"",""Non-random""]"
"","","","","","html-slider-response","91","239708","0.0-85.0","g55dvlt4u1","NaN","<div style=""width:500px;"">
                                <p style=""font-size:50px; font-weight:bold;""
                                ></p>
                                <div style=""width:240px; margin: auto;"">
                                    <img src=""images/D37.png"" style= ""width:200px""alt=""img"">
                                </div>
                            </div>","-93","","0","images/D37.png","","","","[""Random"",""Non-random""]"
"","","","","","html-slider-response","92","241248","0.0-86.0","g55dvlt4u1","NaN","<div style=""width:500px;"">
                                <p style=""font-size:50px; font-weight:bold;""
                                ></p>
                                <div style=""width:240px; margin: auto;"">
                                    <img src=""images/D51.png"" style= ""width:200px""alt=""img"">
                                </div>
                            </div>","-98","","0","images/D51.png","","","","[""Random"",""Non-random""]"
"","","","","","html-slider-response","93","242759","0.0-87.0","g55dvlt4u1","NaN","<div style=""width:500px;"">
                                <p style=""font-size:50px; font-weight:bold;""
                                ></p>
                                <div style=""width:240px; margin: auto;"">
                                    <img src=""images/D105.png"" style= ""width:200px""alt=""img"">
                                </div>
                            </div>","-83","","0","images/D105.png","","","","[""Random"",""Non-random""]"
"","","","","","html-slider-response","94","244326","0.0-88.0","g55dvlt4u1","NaN","<div style=""width:500px;"">
                                <p style=""font-size:50px; font-weight:bold;""
                                ></p>
                                <div style=""width:240px; margin: auto;"">
                                    <img src=""images/D19.png"" style= ""width:200px""alt=""img"">
                                </div>
                            </div>","-106","","0","images/D19.png","","","","[""Random"",""Non-random""]"
"","","","","","html-slider-response","95","245986","0.0-89.0","g55dvlt4u1","NaN","<div style=""width:500px;"">
                                <p style=""font-size:50px; font-weight:bold;""
                                ></p>
                                <div style=""width:240px; margin: auto;"">
                                    <img src=""images/D22.png"" style= ""width:200px""alt=""img"">
                                </div>
                            </div>","90","","0","images/D22.png","","","","[""Random"",""Non-random""]"
"","","","","","html-slider-response","96","247234","0.0-90.0","g55dvlt4u1","NaN","<div style=""width:500px;"">
                                <p style=""font-size:50px; font-weight:bold;""
                                ></p>
                                <div style=""width:240px; margin: auto;"">
                                    <img src=""images/D82.png"" style= ""width:200px""alt=""img"">
                                </div>
                            </div>","-122","","0","images/D82.png","","","","[""Random"",""Non-random""]"
"","","","","","html-slider-response","97","248620","0.0-91.0","g55dvlt4u1","NaN","<div style=""width:500px;"">
                                <p style=""font-size:50px; font-weight:bold;""
                                ></p>
                                <div style=""width:240px; margin: auto;"">
                                    <img src=""images/D68.png"" style= ""width:200px""alt=""img"">
                                </div>
                            </div>","-98","","0","images/D68.png","","","","[""Random"",""Non-random""]"
"","","","","","html-slider-response","98","250368","0.0-92.0","g55dvlt4u1","NaN","<div style=""width:500px;"">
                                <p style=""font-size:50px; font-weight:bold;""
                                ></p>
                                <div style=""width:240px; margin: auto;"">
                                    <img src=""images/D1.png"" style= ""width:200px""alt=""img"">
                                </div>
                            </div>","83","","0","images/D1.png","","","","[""Random"",""Non-random""]"
"","","","","","html-slider-response","99","251579","0.0-93.0","g55dvlt4u1","NaN","<div style=""width:500px;"">
                                <p style=""font-size:50px; font-weight:bold;""
                                ></p>
                                <div style=""width:240px; margin: auto;"">
                                    <img src=""images/D92.png"" style= ""width:200px""alt=""img"">
                                </div>
                            </div>","-89","","0","images/D92.png","","","","[""Random"",""Non-random""]"
"","","","","","html-slider-response","100","253453","0.0-94.0","g55dvlt4u1","NaN","<div style=""width:500px;"">
                                <p style=""font-size:50px; font-weight:bold;""
                                ></p>
                                <div style=""width:240px; margin: auto;"">
                                    <img src=""images/D29.png"" style= ""width:200px""alt=""img"">
                                </div>
                            </div>","-88","","0","images/D29.png","","","","[""Random"",""Non-random""]"
"","","","","","html-slider-response","101","256145","0.0-95.0","g55dvlt4u1","NaN","<div style=""width:500px;"">
                                <p style=""font-size:50px; font-weight:bold;""
                                ></p>
                                <div style=""width:240px; margin: auto;"">
                                    <img src=""images/D4.png"" style= ""width:200px""alt=""img"">
                                </div>
                            </div>","-77","","0","images/D4.png","","","","[""Random"",""Non-random""]"
"","","","","","html-slider-response","102","259187","0.0-96.0","g55dvlt4u1","NaN","<div style=""width:500px;"">
                                <p style=""font-size:50px; font-weight:bold;""
                                ></p>
                                <div style=""width:240px; margin: auto;"">
                                    <img src=""images/D35.png"" style= ""width:200px""alt=""img"">
                                </div>
                            </div>","11","","0","images/D35.png","","","","[""Random"",""Non-random""]"
"","","","","","html-slider-response","103","261870","0.0-97.0","g55dvlt4u1","NaN","<div style=""width:500px;"">
                                <p style=""font-size:50px; font-weight:bold;""
                                ></p>
                                <div style=""width:240px; margin: auto;"">
                                    <img src=""images/D26.png"" style= ""width:200px""alt=""img"">
                                </div>
                            </div>","198","","0","images/D26.png","","","","[""Random"",""Non-random""]"
"","","","","","html-slider-response","104","264345","0.0-98.0","g55dvlt4u1","NaN","<div style=""width:500px;"">
                                <p style=""font-size:50px; font-weight:bold;""
                                ></p>
                                <div style=""width:240px; margin: auto;"">
                                    <img src=""images/D94.png"" style= ""width:200px""alt=""img"">
                                </div>
                            </div>","198","","0","images/D94.png","","","","[""Random"",""Non-random""]"
"","","","","","html-slider-response","105","266811","0.0-99.0","g55dvlt4u1","NaN","<div style=""width:500px;"">
                                <p style=""font-size:50px; font-weight:bold;""
                                ></p>
                                <div style=""width:240px; margin: auto;"">
                                    <img src=""images/D47.png"" style= ""width:200px""alt=""img"">
                                </div>
                            </div>","198","","0","images/D47.png","","","","[""Random"",""Non-random""]"
"","","","","","html-slider-response","106","268787","0.0-100.0","g55dvlt4u1","NaN","<div style=""width:500px;"">
                                <p style=""font-size:50px; font-weight:bold;""
                                ></p>
                                <div style=""width:240px; margin: auto;"">
                                    <img src=""images/D74.png"" style= ""width:200px""alt=""img"">
                                </div>
                            </div>","-157","","0","images/D74.png","","","","[""Random"",""Non-random""]"
"","","","","","html-slider-response","107","271279","0.0-101.0","g55dvlt4u1","NaN","<div style=""width:500px;"">
                                <p style=""font-size:50px; font-weight:bold;""
                                ></p>
                                <div style=""width:240px; margin: auto;"">
                                    <img src=""images/D95.png"" style= ""width:200px""alt=""img"">
                                </div>
                            </div>","191","","0","images/D95.png","","","","[""Random"",""Non-random""]"
"","","","","","html-slider-response","108","272687","0.0-102.0","g55dvlt4u1","NaN","<div style=""width:500px;"">
                                <p style=""font-size:50px; font-weight:bold;""
                                ></p>
                                <div style=""width:240px; margin: auto;"">
                                    <img src=""images/D21.png"" style= ""width:200px""alt=""img"">
                                </div>
                            </div>","-138","","0","images/D21.png","","","","[""Random"",""Non-random""]"
"","","","","","html-slider-response","109","274456","0.0-103.0","g55dvlt4u1","NaN","<div style=""width:500px;"">
                                <p style=""font-size:50px; font-weight:bold;""
                                ></p>
                                <div style=""width:240px; margin: auto;"">
                                    <img src=""images/D106.png"" style= ""width:200px""alt=""img"">
                                </div>
                            </div>","-86","","0","images/D106.png","","","","[""Random"",""Non-random""]"
"","","","","","html-slider-response","110","276650","0.0-104.0","g55dvlt4u1","NaN","<div style=""width:500px;"">
                                <p style=""font-size:50px; font-weight:bold;""
                                ></p>
                                <div style=""width:240px; margin: auto;"">
                                    <img src=""images/D101.png"" style= ""width:200px""alt=""img"">
                                </div>
                            </div>","196","","0","images/D101.png","","","","[""Random"",""Non-random""]"
"","","","","","html-slider-response","111","278707","0.0-105.0","g55dvlt4u1","NaN","<div style=""width:500px;"">
                                <p style=""font-size:50px; font-weight:bold;""
                                ></p>
                                <div style=""width:240px; margin: auto;"">
                                    <img src=""images/D34.png"" style= ""width:200px""alt=""img"">
                                </div>
                            </div>","200","","0","images/D34.png","","","","[""Random"",""Non-random""]"
"","","","","","html-slider-response","112","280669","0.0-106.0","g55dvlt4u1","NaN","<div style=""width:500px;"">
                                <p style=""font-size:50px; font-weight:bold;""
                                ></p>
                                <div style=""width:240px; margin: auto;"">
                                    <img src=""images/D16.png"" style= ""width:200px""alt=""img"">
                                </div>
                            </div>","-163","","0","images/D16.png","","","","[""Random"",""Non-random""]"
"","","","","","html-slider-response","113","283656","0.0-107.0","g55dvlt4u1","NaN","<div style=""width:500px;"">
                                <p style=""font-size:50px; font-weight:bold;""
                                ></p>
                                <div style=""width:240px; margin: auto;"">
                                    <img src=""images/D14.png"" style= ""width:200px""alt=""img"">
                                </div>
                            </div>","150","","0","images/D14.png","","","","[""Random"",""Non-random""]"
"","","","","","html-slider-response","114","285959","0.0-108.0","g55dvlt4u1","NaN","<div style=""width:500px;"">
                                <p style=""font-size:50px; font-weight:bold;""
                                ></p>
                                <div style=""width:240px; margin: auto;"">
                                    <img src=""images/D81.png"" style= ""width:200px""alt=""img"">
                                </div>
                            </div>","-86","","0","images/D81.png","","","","[""Random"",""Non-random""]"
"","","","","","html-slider-response","115","288089","0.0-109.0","g55dvlt4u1","NaN","<div style=""width:500px;"">
                                <p style=""font-size:50px; font-weight:bold;""
                                ></p>
                                <div style=""width:240px; margin: auto;"">
                                    <img src=""images/D75.png"" style= ""width:200px""alt=""img"">
                                </div>
                            </div>","-83","","0","images/D75.png","","","","[""Random"",""Non-random""]"
"","","","","","html-slider-response","116","289825","0.0-110.0","g55dvlt4u1","NaN","<div style=""width:500px;"">
                                <p style=""font-size:50px; font-weight:bold;""
                                ></p>
                                <div style=""width:240px; margin: auto;"">
                                    <img src=""images/D76.png"" style= ""width:200px""alt=""img"">
                                </div>
                            </div>","-102","","0","images/D76.png","","","","[""Random"",""Non-random""]"
"","","","","","html-slider-response","117","291155","0.0-111.0","g55dvlt4u1","NaN","<div style=""width:500px;"">
                                <p style=""font-size:50px; font-weight:bold;""
                                ></p>
                                <div style=""width:240px; margin: auto;"">
                                    <img src=""images/D87.png"" style= ""width:200px""alt=""img"">
                                </div>
                            </div>","-102","","0","images/D87.png","","","","[""Random"",""Non-random""]"
"","","","","","html-slider-response","118","293724","0.0-112.0","g55dvlt4u1","NaN","<div style=""width:500px;"">
                                <p style=""font-size:50px; font-weight:bold;""
                                ></p>
                                <div style=""width:240px; margin: auto;"">
                                    <img src=""images/D8.png"" style= ""width:200px""alt=""img"">
                                </div>
                            </div>","198","","0","images/D8.png","","","","[""Random"",""Non-random""]"
"","","","","","html-slider-response","119","295502","0.0-113.0","g55dvlt4u1","NaN","<div style=""width:500px;"">
                                <p style=""font-size:50px; font-weight:bold;""
                                ></p>
                                <div style=""width:240px; margin: auto;"">
                                    <img src=""images/D111.png"" style= ""width:200px""alt=""img"">
                                </div>
                            </div>","-102","","0","images/D111.png","","","","[""Random"",""Non-random""]"
"","","","","","html-slider-response","120","297855","0.0-114.0","g55dvlt4u1","NaN","<div style=""width:500px;"">
                                <p style=""font-size:50px; font-weight:bold;""
                                ></p>
                                <div style=""width:240px; margin: auto;"">
                                    <img src=""images/D96.png"" style= ""width:200px""alt=""img"">
                                </div>
                            </div>","157","","0","images/D96.png","","","","[""Random"",""Non-random""]"
"","","","","","html-slider-response","121","300078","0.0-115.0","g55dvlt4u1","NaN","<div style=""width:500px;"">
                                <p style=""font-size:50px; font-weight:bold;""
                                ></p>
                                <div style=""width:240px; margin: auto;"">
                                    <img src=""images/D64.png"" style= ""width:200px""alt=""img"">
                                </div>
                            </div>","193","","0","images/D64.png","","","","[""Random"",""Non-random""]"
"","","","","","html-slider-response","122","301986","0.0-116.0","g55dvlt4u1","NaN","<div style=""width:500px;"">
                                <p style=""font-size:50px; font-weight:bold;""
                                ></p>
                                <div style=""width:240px; margin: auto;"">
                                    <img src=""images/D49.png"" style= ""width:200px""alt=""img"">
                                </div>
                            </div>","189","","0","images/D49.png","","","","[""Random"",""Non-random""]"
"","","","","","html-slider-response","123","304098","0.0-117.0","g55dvlt4u1","NaN","<div style=""width:500px;"">
                                <p style=""font-size:50px; font-weight:bold;""
                                ></p>
                                <div style=""width:240px; margin: auto;"">
                                    <img src=""images/D103.png"" style= ""width:200px""alt=""img"">
                                </div>
                            </div>","-142","","0","images/D103.png","","","","[""Random"",""Non-random""]"
"","","","","","html-slider-response","124","305643","0.0-118.0","g55dvlt4u1","NaN","<div style=""width:500px;"">
                                <p style=""font-size:50px; font-weight:bold;""
                                ></p>
                                <div style=""width:240px; margin: auto;"">
                                    <img src=""images/D17.png"" style= ""width:200px""alt=""img"">
                                </div>
                            </div>","-122","","0","images/D17.png","","","","[""Random"",""Non-random""]"
"","","","","","html-slider-response","125","307174","0.0-119.0","g55dvlt4u1","NaN","<div style=""width:500px;"">
                                <p style=""font-size:50px; font-weight:bold;""
                                ></p>
                                <div style=""width:240px; margin: auto;"">
                                    <img src=""images/D85.png"" style= ""width:200px""alt=""img"">
                                </div>
                            </div>","124","","0","images/D85.png","","","","[""Random"",""Non-random""]"
"","","","","","html-slider-response","126","309574","0.0-120.0","g55dvlt4u1","NaN","<div style=""width:500px;"">
                                <p style=""font-size:50px; font-weight:bold;""
                                ></p>
                                <div style=""width:240px; margin: auto;"">
                                    <img src=""images/D77.png"" style= ""width:200px""alt=""img"">
                                </div>
                            </div>","138","","0","images/D77.png","","","","[""Random"",""Non-random""]"
"","","","","","html-slider-response","127","311534","0.0-121.0","g55dvlt4u1","NaN","<div style=""width:500px;"">
                                <p style=""font-size:50px; font-weight:bold;""
                                ></p>
                                <div style=""width:240px; margin: auto;"">
                                    <img src=""images/D57.png"" style= ""width:200px""alt=""img"">
                                </div>
                            </div>","-146","","0","images/D57.png","","","","[""Random"",""Non-random""]"
"","","","","","html-slider-response","128","313446","0.0-122.0","g55dvlt4u1","NaN","<div style=""width:500px;"">
                                <p style=""font-size:50px; font-weight:bold;""
                                ></p>
                                <div style=""width:240px; margin: auto;"">
                                    <img src=""images/D48.png"" style= ""width:200px""alt=""img"">
                                </div>
                            </div>","158","","0","images/D48.png","","","","[""Random"",""Non-random""]"
"","","","","","html-slider-response","129","316080","0.0-123.0","g55dvlt4u1","NaN","<div style=""width:500px;"">
                                <p style=""font-size:50px; font-weight:bold;""
                                ></p>
                                <div style=""width:240px; margin: auto;"">
                                    <img src=""images/D66.png"" style= ""width:200px""alt=""img"">
                                </div>
                            </div>","-146","","0","images/D66.png","","","","[""Random"",""Non-random""]"
"","","","","","html-slider-response","130","320155","0.0-124.0","g55dvlt4u1","NaN","<div style=""width:500px;"">
                                <p style=""font-size:50px; font-weight:bold;""
                                ></p>
                                <div style=""width:240px; margin: auto;"">
                                    <img src=""images/D104.png"" style= ""width:200px""alt=""img"">
                                </div>
                            </div>","-32","","0","images/D104.png","","","","[""Random"",""Non-random""]"
"","","","","","html-slider-response","131","322651","0.0-125.0","g55dvlt4u1","NaN","<div style=""width:500px;"">
                                <p style=""font-size:50px; font-weight:bold;""
                                ></p>
                                <div style=""width:240px; margin: auto;"">
                                    <img src=""images/D80.png"" style= ""width:200px""alt=""img"">
                                </div>
                            </div>","-33","","0","images/D80.png","","","","[""Random"",""Non-random""]"
"","","","","","html-slider-response","132","326789","0.0-126.0","g55dvlt4u1","NaN","<div style=""width:500px;"">
                                <p style=""font-size:50px; font-weight:bold;""
                                ></p>
                                <div style=""width:240px; margin: auto;"">
                                    <img src=""images/D11.png"" style= ""width:200px""alt=""img"">
                                </div>
                            </div>","91","","0","images/D11.png","","","","[""Random"",""Non-random""]"
"","","","","","html-slider-response","133","330070","0.0-127.0","g55dvlt4u1","NaN","<div style=""width:500px;"">
                                <p style=""font-size:50px; font-weight:bold;""
                                ></p>
                                <div style=""width:240px; margin: auto;"">
                                    <img src=""images/D83.png"" style= ""width:200px""alt=""img"">
                                </div>
                            </div>","91","","0","images/D83.png","","","","[""Random"",""Non-random""]"
"","","","","","html-slider-response","134","331376","0.0-128.0","g55dvlt4u1","NaN","<div style=""width:500px;"">
                                <p style=""font-size:50px; font-weight:bold;""
                                ></p>
                                <div style=""width:240px; margin: auto;"">
                                    <img src=""images/D25.png"" style= ""width:200px""alt=""img"">
                                </div>
                            </div>","91","","0","images/D25.png","","","","[""Random"",""Non-random""]"
"","","","","","html-slider-response","135","334079","0.0-129.0","g55dvlt4u1","NaN","<div style=""width:500px;"">
                                <p style=""font-size:50px; font-weight:bold;""
                                ></p>
                                <div style=""width:240px; margin: auto;"">
                                    <img src=""images/D65.png"" style= ""width:200px""alt=""img"">
                                </div>
                            </div>","199","","0","images/D65.png","","","","[""Random"",""Non-random""]"
"","","","","","html-slider-response","136","336081","0.0-130.0","g55dvlt4u1","NaN","<div style=""width:500px;"">
                                <p style=""font-size:50px; font-weight:bold;""
                                ></p>
                                <div style=""width:240px; margin: auto;"">
                                    <img src=""images/D78.png"" style= ""width:200px""alt=""img"">
                                </div>
                            </div>","-150","","0","images/D78.png","","","","[""Random"",""Non-random""]"
"","","","","","html-slider-response","137","338778","0.0-131.0","g55dvlt4u1","NaN","<div style=""width:500px;"">
                                <p style=""font-size:50px; font-weight:bold;""
                                ></p>
                                <div style=""width:240px; margin: auto;"">
                                    <img src=""images/D52.png"" style= ""width:200px""alt=""img"">
                                </div>
                            </div>","184","","0","images/D52.png","","","","[""Random"",""Non-random""]"
"","","","","","html-slider-response","138","341900","0.0-132.0","g55dvlt4u1","NaN","<div style=""width:500px;"">
                                <p style=""font-size:50px; font-weight:bold;""
                                ></p>
                                <div style=""width:240px; margin: auto;"">
                                    <img src=""images/D36.png"" style= ""width:200px""alt=""img"">
                                </div>
                            </div>","-141","","0","images/D36.png","","","","[""Random"",""Non-random""]"
"","","","","","html-slider-response","139","344126","0.0-133.0","g55dvlt4u1","NaN","<div style=""width:500px;"">
                                <p style=""font-size:50px; font-weight:bold;""
                                ></p>
                                <div style=""width:240px; margin: auto;"">
                                    <img src=""images/D79.png"" style= ""width:200px""alt=""img"">
                                </div>
                            </div>","182","","0","images/D79.png","","","","[""Random"",""Non-random""]"
"","","","","","html-slider-response","140","346191","0.0-134.0","g55dvlt4u1","NaN","<div style=""width:500px;"">
                                <p style=""font-size:50px; font-weight:bold;""
                                ></p>
                                <div style=""width:240px; margin: auto;"">
                                    <img src=""images/D56.png"" style= ""width:200px""alt=""img"">
                                </div>
                            </div>","194","","0","images/D56.png","","","","[""Random"",""Non-random""]"
"","","","","","html-slider-response","141","347991","0.0-135.0","g55dvlt4u1","NaN","<div style=""width:500px;"">
                                <p style=""font-size:50px; font-weight:bold;""
                                ></p>
                                <div style=""width:240px; margin: auto;"">
                                    <img src=""images/D20.png"" style= ""width:200px""alt=""img"">
                                </div>
                            </div>","195","","0","images/D20.png","","","","[""Random"",""Non-random""]"
"","","","","","html-slider-response","142","350665","0.0-136.0","g55dvlt4u1","NaN","<div style=""width:500px;"">
                                <p style=""font-size:50px; font-weight:bold;""
                                ></p>
                                <div style=""width:240px; margin: auto;"">
                                    <img src=""images/D3.png"" style= ""width:200px""alt=""img"">
                                </div>
                            </div>","-76","","0","images/D3.png","","","","[""Random"",""Non-random""]"
"","","","","","html-slider-response","143","353507","0.0-137.0","g55dvlt4u1","NaN","<div style=""width:500px;"">
                                <p style=""font-size:50px; font-weight:bold;""
                                ></p>
                                <div style=""width:240px; margin: auto;"">
                                    <img src=""images/D55.png"" style= ""width:200px""alt=""img"">
                                </div>
                            </div>","149","","0","images/D55.png","","","","[""Random"",""Non-random""]"
"","","","","","html-slider-response","144","355323","0.0-138.0","g55dvlt4u1","NaN","<div style=""width:500px;"">
                                <p style=""font-size:50px; font-weight:bold;""
                                ></p>
                                <div style=""width:240px; margin: auto;"">
                                    <img src=""images/D46.png"" style= ""width:200px""alt=""img"">
                                </div>
                            </div>","163","","0","images/D46.png","","","","[""Random"",""Non-random""]"
"","","","","","html-slider-response","145","357236","0.0-139.0","g55dvlt4u1","NaN","<div style=""width:500px;"">
                                <p style=""font-size:50px; font-weight:bold;""
                                ></p>
                                <div style=""width:240px; margin: auto;"">
                                    <img src=""images/D32.png"" style= ""width:200px""alt=""img"">
                                </div>
                            </div>","-135","","0","images/D32.png","","","","[""Random"",""Non-random""]"
"","","","","","html-button-response","146","359410","0.0-140.0","g55dvlt4u1","1672","You have completed the second block of trials out of six. Please click 'Continue' when you are ready proceed.","0","","","","","","",""
"","","","","","html-button-response","147","360722","0.0-141.0","g55dvlt4u1","1310","In the following trials, you will be asked to rate textures on the scale <b>Rounded</b> versus <b>Rectangular</b>. Please click 'Continue' when you are ready proceed.","0","","","","","","",""
"","","","","","html-slider-response","148","362279","0.0-142.0","g55dvlt4u1","NaN","<div style=""width:500px;"">
                                <p style=""font-size:50px; font-weight:bold;""
                                ></p>
                                <div style=""width:240px; margin: auto;"">
                                    <img src=""images/D49.png"" style= ""width:200px""alt=""img"">
                                </div>
                            </div>","140","","0","images/D49.png","","","","[""Rounded"",""Rectangular""]"
"","","","","","html-slider-response","149","364377","0.0-143.0","g55dvlt4u1","NaN","<div style=""width:500px;"">
                                <p style=""font-size:50px; font-weight:bold;""
                                ></p>
                                <div style=""width:240px; margin: auto;"">
                                    <img src=""images/D94.png"" style= ""width:200px""alt=""img"">
                                </div>
                            </div>","191","","0","images/D94.png","","","","[""Rounded"",""Rectangular""]"
"","","","","","html-slider-response","150","367330","0.0-144.0","g55dvlt4u1","NaN","<div style=""width:500px;"">
                                <p style=""font-size:50px; font-weight:bold;""
                                ></p>
                                <div style=""width:240px; margin: auto;"">
                                    <img src=""images/D83.png"" style= ""width:200px""alt=""img"">
                                </div>
                            </div>","191","","0","images/D83.png","","","","[""Rounded"",""Rectangular""]"
"","","","","","html-slider-response","151","368900","0.0-145.0","g55dvlt4u1","NaN","<div style=""width:500px;"">
                                <p style=""font-size:50px; font-weight:bold;""
                                ></p>
                                <div style=""width:240px; margin: auto;"">
                                    <img src=""images/D26.png"" style= ""width:200px""alt=""img"">
                                </div>
                            </div>","191","","0","images/D26.png","","","","[""Rounded"",""Rectangular""]"
"","","","","","html-slider-response","152","370932","0.0-146.0","g55dvlt4u1","NaN","<div style=""width:500px;"">
                                <p style=""font-size:50px; font-weight:bold;""
                                ></p>
                                <div style=""width:240px; margin: auto;"">
                                    <img src=""images/D111.png"" style= ""width:200px""alt=""img"">
                                </div>
                            </div>","-184","","0","images/D111.png","","","","[""Rounded"",""Rectangular""]"
"","","","","","html-slider-response","153","372892","0.0-147.0","g55dvlt4u1","NaN","<div style=""width:500px;"">
                                <p style=""font-size:50px; font-weight:bold;""
                                ></p>
                                <div style=""width:240px; margin: auto;"">
                                    <img src=""images/D11.png"" style= ""width:200px""alt=""img"">
                                </div>
                            </div>","196","","0","images/D11.png","","","","[""Rounded"",""Rectangular""]"
"","","","","","html-slider-response","154","375422","0.0-148.0","g55dvlt4u1","NaN","<div style=""width:500px;"">
                                <p style=""font-size:50px; font-weight:bold;""
                                ></p>
                                <div style=""width:240px; margin: auto;"">
                                    <img src=""images/D16.png"" style= ""width:200px""alt=""img"">
                                </div>
                            </div>","192","","0","images/D16.png","","","","[""Rounded"",""Rectangular""]"
"","","","","","html-slider-response","155","376764","0.0-149.0","g55dvlt4u1","NaN","<div style=""width:500px;"">
                                <p style=""font-size:50px; font-weight:bold;""
                                ></p>
                                <div style=""width:240px; margin: auto;"">
                                    <img src=""images/D68.png"" style= ""width:200px""alt=""img"">
                                </div>
                            </div>","186","","0","images/D68.png","","","","[""Rounded"",""Rectangular""]"
"","","","","","html-slider-response","156","378056","0.0-150.0","g55dvlt4u1","NaN","<div style=""width:500px;"">
                                <p style=""font-size:50px; font-weight:bold;""
                                ></p>
                                <div style=""width:240px; margin: auto;"">
                                    <img src=""images/D103.png"" style= ""width:200px""alt=""img"">
                                </div>
                            </div>","188","","0","images/D103.png","","","","[""Rounded"",""Rectangular""]"
"","","","","","html-slider-response","157","380313","0.0-151.0","g55dvlt4u1","NaN","<div style=""width:500px;"">
                                <p style=""font-size:50px; font-weight:bold;""
                                ></p>
                                <div style=""width:240px; margin: auto;"">
                                    <img src=""images/D84.png"" style= ""width:200px""alt=""img"">
                                </div>
                            </div>","-174","","0","images/D84.png","","","","[""Rounded"",""Rectangular""]"
"","","","","","html-slider-response","158","382153","0.0-152.0","g55dvlt4u1","NaN","<div style=""width:500px;"">
                                <p style=""font-size:50px; font-weight:bold;""
                                ></p>
                                <div style=""width:240px; margin: auto;"">
                                    <img src=""images/D47.png"" style= ""width:200px""alt=""img"">
                                </div>
                            </div>","192","","0","images/D47.png","","","","[""Rounded"",""Rectangular""]"
"","","","","","html-slider-response","159","388146","0.0-153.0","g55dvlt4u1","NaN","<div style=""width:500px;"">
                                <p style=""font-size:50px; font-weight:bold;""
                                ></p>
                                <div style=""width:240px; margin: auto;"">
                                    <img src=""images/D24.png"" style= ""width:200px""alt=""img"">
                                </div>
                            </div>","2","","0","images/D24.png","","","","[""Rounded"",""Rectangular""]"
"","","","","","html-slider-response","160","390894","0.0-154.0","g55dvlt4u1","NaN","<div style=""width:500px;"">
                                <p style=""font-size:50px; font-weight:bold;""
                                ></p>
                                <div style=""width:240px; margin: auto;"">
                                    <img src=""images/D37.png"" style= ""width:200px""alt=""img"">
                                </div>
                            </div>","1","","0","images/D37.png","","","","[""Rounded"",""Rectangular""]"
"","","","","","html-slider-response","161","393197","0.0-155.0","g55dvlt4u1","NaN","<div style=""width:500px;"">
                                <p style=""font-size:50px; font-weight:bold;""
                                ></p>
                                <div style=""width:240px; margin: auto;"">
                                    <img src=""images/D18.png"" style= ""width:200px""alt=""img"">
                                </div>
                            </div>","187","","0","images/D18.png","","","","[""Rounded"",""Rectangular""]"
"","","","","","html-slider-response","162","396016","0.0-156.0","g55dvlt4u1","NaN","<div style=""width:500px;"">
                                <p style=""font-size:50px; font-weight:bold;""
                                ></p>
                                <div style=""width:240px; margin: auto;"">
                                    <img src=""images/D57.png"" style= ""width:200px""alt=""img"">
                                </div>
                            </div>","2","","0","images/D57.png","","","","[""Rounded"",""Rectangular""]"
"","","","","","html-slider-response","163","398386","0.0-157.0","g55dvlt4u1","NaN","<div style=""width:500px;"">
                                <p style=""font-size:50px; font-weight:bold;""
                                ></p>
                                <div style=""width:240px; margin: auto;"">
                                    <img src=""images/D76.png"" style= ""width:200px""alt=""img"">
                                </div>
                            </div>","-1","","0","images/D76.png","","","","[""Rounded"",""Rectangular""]"
"","","","","","html-slider-response","164","400666","0.0-158.0","g55dvlt4u1","NaN","<div style=""width:500px;"">
                                <p style=""font-size:50px; font-weight:bold;""
                                ></p>
                                <div style=""width:240px; margin: auto;"">
                                    <img src=""images/D29.png"" style= ""width:200px""alt=""img"">
                                </div>
                            </div>","-1","","0","images/D29.png","","","","[""Rounded"",""Rectangular""]"
"","","","","","html-slider-response","165","402114","0.0-159.0","g55dvlt4u1","NaN","<div style=""width:500px;"">
                                <p style=""font-size:50px; font-weight:bold;""
                                ></p>
                                <div style=""width:240px; margin: auto;"">
                                    <img src=""images/D80.png"" style= ""width:200px""alt=""img"">
                                </div>
                            </div>","0","","0","images/D80.png","","","","[""Rounded"",""Rectangular""]"
"","","","","","html-slider-response","166","404243","0.0-160.0","g55dvlt4u1","NaN","<div style=""width:500px;"">
                                <p style=""font-size:50px; font-weight:bold;""
                                ></p>
                                <div style=""width:240px; margin: auto;"">
                                    <img src=""images/D32.png"" style= ""width:200px""alt=""img"">
                                </div>
                            </div>","-181","","0","images/D32.png","","","","[""Rounded"",""Rectangular""]"
"","","","","","html-slider-response","167","406572","0.0-161.0","g55dvlt4u1","NaN","<div style=""width:500px;"">
                                <p style=""font-size:50px; font-weight:bold;""
                                ></p>
                                <div style=""width:240px; margin: auto;"">
                                    <img src=""images/D102.png"" style= ""width:200px""alt=""img"">
                                </div>
                            </div>","-197","","0","images/D102.png","","","","[""Rounded"",""Rectangular""]"
"","","","","","html-slider-response","168","409694","0.0-162.0","g55dvlt4u1","NaN","<div style=""width:500px;"">
                                <p style=""font-size:50px; font-weight:bold;""
                                ></p>
                                <div style=""width:240px; margin: auto;"">
                                    <img src=""images/D25.png"" style= ""width:200px""alt=""img"">
                                </div>
                            </div>","191","","0","images/D25.png","","","","[""Rounded"",""Rectangular""]"
"","","","","","html-slider-response","169","413111","0.0-163.0","g55dvlt4u1","NaN","<div style=""width:500px;"">
                                <p style=""font-size:50px; font-weight:bold;""
                                ></p>
                                <div style=""width:240px; margin: auto;"">
                                    <img src=""images/D52.png"" style= ""width:200px""alt=""img"">
                                </div>
                            </div>","-154","","0","images/D52.png","","","","[""Rounded"",""Rectangular""]"
"","","","","","html-slider-response","170","415786","0.0-164.0","g55dvlt4u1","NaN","<div style=""width:500px;"">
                                <p style=""font-size:50px; font-weight:bold;""
                                ></p>
                                <div style=""width:240px; margin: auto;"">
                                    <img src=""images/D55.png"" style= ""width:200px""alt=""img"">
                                </div>
                            </div>","196","","0","images/D55.png","","","","[""Rounded"",""Rectangular""]"
"","","","","","html-slider-response","171","417914","0.0-165.0","g55dvlt4u1","NaN","<div style=""width:500px;"">
                                <p style=""font-size:50px; font-weight:bold;""
                                ></p>
                                <div style=""width:240px; margin: auto;"">
                                    <img src=""images/D66.png"" style= ""width:200px""alt=""img"">
                                </div>
                            </div>","-197","","0","images/D66.png","","","","[""Rounded"",""Rectangular""]"
"","","","","","html-slider-response","172","423389","0.0-166.0","g55dvlt4u1","NaN","<div style=""width:500px;"">
                                <p style=""font-size:50px; font-weight:bold;""
                                ></p>
                                <div style=""width:240px; margin: auto;"">
                                    <img src=""images/D35.png"" style= ""width:200px""alt=""img"">
                                </div>
                            </div>","-29","","0","images/D35.png","","","","[""Rounded"",""Rectangular""]"
"","","","","","html-slider-response","173","425422","0.0-167.0","g55dvlt4u1","NaN","<div style=""width:500px;"">
                                <p style=""font-size:50px; font-weight:bold;""
                                ></p>
                                <div style=""width:240px; margin: auto;"">
                                    <img src=""images/D21.png"" style= ""width:200px""alt=""img"">
                                </div>
                            </div>","127","","0","images/D21.png","","","","[""Rounded"",""Rectangular""]"
"","","","","","html-slider-response","174","426949","0.0-168.0","g55dvlt4u1","NaN","<div style=""width:500px;"">
                                <p style=""font-size:50px; font-weight:bold;""
                                ></p>
                                <div style=""width:240px; margin: auto;"">
                                    <img src=""images/D105.png"" style= ""width:200px""alt=""img"">
                                </div>
                            </div>","133","","0","images/D105.png","","","","[""Rounded"",""Rectangular""]"
"","","","","","html-slider-response","175","428439","0.0-169.0","g55dvlt4u1","NaN","<div style=""width:500px;"">
                                <p style=""font-size:50px; font-weight:bold;""
                                ></p>
                                <div style=""width:240px; margin: auto;"">
                                    <img src=""images/D20.png"" style= ""width:200px""alt=""img"">
                                </div>
                            </div>","131","","0","images/D20.png","","","","[""Rounded"",""Rectangular""]"
"","","","","","html-slider-response","176","430977","0.0-170.0","g55dvlt4u1","NaN","<div style=""width:500px;"">
                                <p style=""font-size:50px; font-weight:bold;""
                                ></p>
                                <div style=""width:240px; margin: auto;"">
                                    <img src=""images/D3.png"" style= ""width:200px""alt=""img"">
                                </div>
                            </div>","-195","","0","images/D3.png","","","","[""Rounded"",""Rectangular""]"
"","","","","","html-slider-response","177","435512","0.0-171.0","g55dvlt4u1","NaN","<div style=""width:500px;"">
                                <p style=""font-size:50px; font-weight:bold;""
                                ></p>
                                <div style=""width:240px; margin: auto;"">
                                    <img src=""images/D46.png"" style= ""width:200px""alt=""img"">
                                </div>
                            </div>","43","","0","images/D46.png","","","","[""Rounded"",""Rectangular""]"
"","","","","","html-slider-response","178","437620","0.0-172.0","g55dvlt4u1","NaN","<div style=""width:500px;"">
                                <p style=""font-size:50px; font-weight:bold;""
                                ></p>
                                <div style=""width:240px; margin: auto;"">
                                    <img src=""images/D65.png"" style= ""width:200px""alt=""img"">
                                </div>
                            </div>","198","","0","images/D65.png","","","","[""Rounded"",""Rectangular""]"
"","","","","","html-slider-response","179","440789","0.0-173.0","g55dvlt4u1","NaN","<div style=""width:500px;"">
                                <p style=""font-size:50px; font-weight:bold;""
                                ></p>
                                <div style=""width:240px; margin: auto;"">
                                    <img src=""images/D36.png"" style= ""width:200px""alt=""img"">
                                </div>
                            </div>","-194","","0","images/D36.png","","","","[""Rounded"",""Rectangular""]"
"","","","","","html-slider-response","180","442636","0.0-174.0","g55dvlt4u1","NaN","<div style=""width:500px;"">
                                <p style=""font-size:50px; font-weight:bold;""
                                ></p>
                                <div style=""width:240px; margin: auto;"">
                                    <img src=""images/D64.png"" style= ""width:200px""alt=""img"">
                                </div>
                            </div>","198","","0","images/D64.png","","","","[""Rounded"",""Rectangular""]"
"","","","","","html-slider-response","181","444309","0.0-175.0","g55dvlt4u1","NaN","<div style=""width:500px;"">
                                <p style=""font-size:50px; font-weight:bold;""
                                ></p>
                                <div style=""width:240px; margin: auto;"">
                                    <img src=""images/D82.png"" style= ""width:200px""alt=""img"">
                                </div>
                            </div>","197","","0","images/D82.png","","","","[""Rounded"",""Rectangular""]"
"","","","","","html-slider-response","182","446950","0.0-176.0","g55dvlt4u1","NaN","<div style=""width:500px;"">
                                <p style=""font-size:50px; font-weight:bold;""
                                ></p>
                                <div style=""width:240px; margin: auto;"">
                                    <img src=""images/D85.png"" style= ""width:200px""alt=""img"">
                                </div>
                            </div>","111","","0","images/D85.png","","","","[""Rounded"",""Rectangular""]"
"","","","","","html-slider-response","183","449167","0.0-177.0","g55dvlt4u1","NaN","<div style=""width:500px;"">
                                <p style=""font-size:50px; font-weight:bold;""
                                ></p>
                                <div style=""width:240px; margin: auto;"">
                                    <img src=""images/D74.png"" style= ""width:200px""alt=""img"">
                                </div>
                            </div>","-139","","0","images/D74.png","","","","[""Rounded"",""Rectangular""]"
"","","","","","html-slider-response","184","454035","0.0-178.0","g55dvlt4u1","NaN","<div style=""width:500px;"">
                                <p style=""font-size:50px; font-weight:bold;""
                                ></p>
                                <div style=""width:240px; margin: auto;"">
                                    <img src=""images/D104.png"" style= ""width:200px""alt=""img"">
                                </div>
                            </div>","152","","0","images/D104.png","","","","[""Rounded"",""Rectangular""]"
"","","","","","html-slider-response","185","456323","0.0-179.0","g55dvlt4u1","NaN","<div style=""width:500px;"">
                                <p style=""font-size:50px; font-weight:bold;""
                                ></p>
                                <div style=""width:240px; margin: auto;"">
                                    <img src=""images/D51.png"" style= ""width:200px""alt=""img"">
                                </div>
                            </div>","168","","0","images/D51.png","","","","[""Rounded"",""Rectangular""]"
"","","","","","html-slider-response","186","458395","0.0-180.0","g55dvlt4u1","NaN","<div style=""width:500px;"">
                                <p style=""font-size:50px; font-weight:bold;""
                                ></p>
                                <div style=""width:240px; margin: auto;"">
                                    <img src=""images/D78.png"" style= ""width:200px""alt=""img"">
                                </div>
                            </div>","165","","0","images/D78.png","","","","[""Rounded"",""Rectangular""]"
"","","","","","html-slider-response","187","461340","0.0-181.0","g55dvlt4u1","NaN","<div style=""width:500px;"">
