"success","timeout","failed_images","failed_audio","failed_video","trial_type","trial_index","time_elapsed","internal_node_id","subject_id","rt","stimulus","response","question_order","slider_start","image_path","practiceTrial","practiceTrialNum","correct","slider_labels"
"true","false","[]","[]","[]","preload","0","500","0.0-0.0","hbnp44r1p0","","","","","","","","","",""
"","","","","","html-button-response","1","1553","0.0-1.0","hbnp44r1p0","1051","<div style='text-align:center; font-size:20px; line-height:25px; width: 1200px;'>
                Welcome to our experiment! <br>
                <br>At the bottom of this screen, you will see a button that says 'Begin Experiment.
                <br>Please only click that button when you are ready to complete the 25 minute experiment in one sitting. <br>
                <br> Once you click that button, it will not be possible to restart the experiment. <br><br>","0","","","","","","",""
"true","","","","","fullscreen","2","3176","0.0-2.0","hbnp44r1p0","618","","","","","","","","",""
"","","","","","survey-multi-select","3","6835","0.0-3.0","hbnp44r1p0","3652","","{""Consent"":[""<strong>I consent</strong>""]}","[0]","","","","","",""
"","","","","","html-button-response","4","7702","0.0-4.0","hbnp44r1p0","806","Welcome! <p> This experiment involves two parts: demographic information, followed by the experimental task.<p> It will take about 25 minutes to complete both parts.","0","","","","","","",""
"","","","","","survey-text","5","14573","0.0-5.0","hbnp44r1p0","6867","","{""Age"":""18"",""Gender"":""Woman"",""Race/ethnicity"":""Hispanic""}","","","","","","",""
"","","","","","html-slider-response","6","16269","0.0-6.0","hbnp44r1p0","1693","
                <div style='text-align:center; height: auto; margin-left=-100px; margin-bottom: -20px; font-size:20px; line-height:5px; width: 1200px;'>
                    <br>During this experiment, you will see a series of textures, one at a time, like the ones below: 
                </div>
                    <br>
                    <br>
                    <img src=""anchoring_visual_textures.png"" alt=""img"" style=""max-width:1200px; margin-left: -10px;"">
                </div>
                <div style=""clear: both;""></div>
                </div>
                    <div style='text-align:center; margin-left=-100px; font-size:20px; line-height:20px; width: 1200px; margin-top: -50px;'>
                    
                    <br> For each texture, you will be asked to rate where you think it falls on each of the response scales with the following endpoints:
                    </div>
                            <div style=""text-align: center; width: 1400px; "">
                                <p style=""font-size:20px; line-height:5px; ""><b>Blobby</b> versus <b>Stripey</b></p>
                                <p style=""font-size:20px; line-height:5px; ""><b>Rounded</b> versus <b>Rectangular</b></p>
                                <p style=""font-size:20px;line-height:5px;""><b>Coarse</b> versus <b>Fine</b></p>
                                <p style=""font-size:20px;line-height:5px; ""><b>Rough</b> versus <b>Smooth</b></p>
                                <p style=""font-size:20px;line-height:5px; ""><b>Random</b> versus <b>Non-Random</b></p>
                                <p style=""font-size:20px;line-height:5px;""><b>Hard</b> versus <b>Soft</b></p>
                            </div>
                            <div style='text-align:center; font-size:20px; line-height:20px; width: 1400px;'>
                    
                    Each trial will include one texture and one response scale. You will be asked to make your rating by sliding the cursor along a slider response scale like the one below.
                    <br><br> Before beginning, please look at the textures and scales. For each scale, think about the texture you associate most with the left endpoint. When you see that texture for that response scale, please click near the left of the scale.
                    <br><br> Now, please think about the texture you associate most with the right endpoint of each scale. When you see that texture for that response scale, please click near the right of the scale. 
                    <br><br> If you think a texture is not strongly associated with either endpoint of the scale, please click near the midpoint of the scale. Please use the full range of the scale. 
                    <br><br> You will be asked to rate each texture for a given scale before moving on to the next scale.
                    <br><br> Please press the 'Continue' button for instructions on how to use the slider.                     <br><br>
                ","null","","0","visual_textures_anchoring.png","true","","",""
"","","","","","html-button-response","7","17458","0.0-7.0","hbnp44r1p0","1188","<div style=""width:1200px; margin-top:-150px;""><p style=""text-align:center; font-size:24px;"">To move the slider, click and drag your cursor to the location of the scale where you would like to make your rating and then let go. <br><br> When you let go of the slider, your response will be recorded and the next trial will begin. <br><br><br>
                We are interested in your initial impressions of each texture and scale, so please go with your first intuition. <br><br>
                Before you begin the experiment, there will be four training trials for you to practice using the scale. <br><br><br><br></div>
                <div style=""width:1200px;""><p style=""text-align:center; font-size:20px;"">When you are ready to start the training trials, please click ""Continue"".</p></div>","0","","","","","","",""
"","","","","","html-slider-response","8","18774","0.0-8.0-0.0","hbnp44r1p0","NaN","<div style=""width:500px;"">
                                <p style=""font-size:25px;"">Please move the slider all the way to the <br> right endpoint of the scale</p>

                                </div>
                            </div>","200","","0","","true","0","true",""
"","","","","","html-button-response","9","20055","0.0-8.0-1.0","hbnp44r1p0","778","<p align='center'><b>Good job!</b> Click on 'Continue' to proceed.</p>","0","","","","","","",""
"","","","","","html-slider-response","10","21197","0.0-9.0-0.0","hbnp44r1p0","NaN","<div style=""width:500px;"">
                                <p style=""font-size:25px;"">Please move the slider all the way to the <br> left endpoint of the scale</p>

                                </div>
                            </div>","-200","","0","","true","1","true",""
"","","","","","html-button-response","11","22700","0.0-9.0-1.0","hbnp44r1p0","1001","<p align='center'><b>Good job!</b> Click on 'Continue' to proceed.</p>","0","","","","","","",""
"","","","","","html-slider-response","12","27505","0.0-10.0-0.0","hbnp44r1p0","NaN","<div style=""width:500px;"">
                                <p style=""font-size:25px;"">Please move the slider halfway between the center and right endpoint of the scale</p>

                                </div>
                            </div>","112","","0","","true","2","false",""
"","","","","","html-button-response","13","29642","0.0-10.0-1.0","hbnp44r1p0","1635","<p align='center'><b>Not quite!</b> The slider was not placed near the instructed locattion. Click on 'Continue' to try again. </p>","0","","","","","","",""
"","","","","","html-slider-response","14","38027","0.0-10.1-0.1","hbnp44r1p0","NaN","<div style=""width:500px;"">
                                <p style=""font-size:25px;"">Please move the slider halfway between the center and right endpoint of the scale</p>

                                </div>
                            </div>","107","","0","","true","2","true",""
"","","","","","html-button-response","15","39379","0.0-10.1-1.1","hbnp44r1p0","850","<p align='center'><b>Good job!</b> Click on 'Continue' to proceed.</p>","0","","","","","","",""
"","","","","","html-slider-response","16","42112","0.0-11.0-0.0","hbnp44r1p0","NaN","<div style=""width:500px;"">
                                <p style=""font-size:25px;"">Please move the slider halfway between the center and left endpoint of the scale</p>

                                </div>
                            </div>","-106","","0","","true","3","true",""
"","","","","","html-button-response","17","43212","0.0-11.0-1.0","hbnp44r1p0","597","<p align='center'><b>Good job!</b> Click on 'Continue' to proceed.</p>","0","","","","","","",""
"","","","","","html-button-response","18","43920","0.0-12.0","hbnp44r1p0","707","<div style=""width:800px; margin-top:-300px;""><p style=""text-align:center; font-size:22px; line-height:25px;""""> Great job! You've completed the practice trials.</div>
                     <div style=""width:800px; margin-top:-20px;""><p style=""text-align:center""><br><br> In the following trials, you will be asked to rate textures on each scale one-by-one. <br> You will be given opportunities to take breaks when you have completed each block of trials. There are six total blocks of trials. <br><br> Please click continue to begin the main task.<br><br><br> </div>","0","","","","","","",""
"","","","","","html-button-response","19","45008","0.0-13.0","hbnp44r1p0","1087","In the following trials, you will be asked to rate textures on the scale <b>Rounded</b> versus <b>Rectangular</b>. Please click 'Continue' when you are ready proceed.","0","","","","","","",""
"","","","","","html-slider-response","20","50363","0.0-14.0","hbnp44r1p0","NaN","<div style=""width:500px;"">
                                <p style=""font-size:50px; font-weight:bold;""
                                ></p>
                                <div style=""width:240px; margin: auto;"">
                                    <img src=""images/D37.png"" style= ""width:200px""alt=""img"">
                                </div>
                            </div>","96","","0","images/D37.png","","","","[""Rounded"",""Rectangular""]"
"","","","","","html-slider-response","21","53395","0.0-15.0","hbnp44r1p0","NaN","<div style=""width:500px;"">
                                <p style=""font-size:50px; font-weight:bold;""
                                ></p>
                                <div style=""width:240px; margin: auto;"">
                                    <img src=""images/D47.png"" style= ""width:200px""alt=""img"">
                                </div>
                            </div>","200","","0","images/D47.png","","","","[""Rounded"",""Rectangular""]"
"","","","","","html-slider-response","22","55686","0.0-16.0","hbnp44r1p0","NaN","<div style=""width:500px;"">
                                <p style=""font-size:50px; font-weight:bold;""
                                ></p>
                                <div style=""width:240px; margin: auto;"">
                                    <img src=""images/D49.png"" style= ""width:200px""alt=""img"">
                                </div>
                            </div>","200","","0","images/D49.png","","","","[""Rounded"",""Rectangular""]"
"","","","","","html-slider-response","23","58661","0.0-17.0","hbnp44r1p0","NaN","<div style=""width:500px;"">
                                <p style=""font-size:50px; font-weight:bold;""
                                ></p>
                                <div style=""width:240px; margin: auto;"">
                                    <img src=""images/D56.png"" style= ""width:200px""alt=""img"">
                                </div>
                            </div>","-106","","0","images/D56.png","","","","[""Rounded"",""Rectangular""]"
"","","","","","html-slider-response","24","60416","0.0-18.0","hbnp44r1p0","NaN","<div style=""width:500px;"">
                                <p style=""font-size:50px; font-weight:bold;""
                                ></p>
                                <div style=""width:240px; margin: auto;"">
                                    <img src=""images/D26.png"" style= ""width:200px""alt=""img"">
                                </div>
                            </div>","200","","0","images/D26.png","","","","[""Rounded"",""Rectangular""]"
"","","","","","html-slider-response","25","62195","0.0-19.0","hbnp44r1p0","NaN","<div style=""width:500px;"">
                                <p style=""font-size:50px; font-weight:bold;""
                                ></p>
                                <div style=""width:240px; margin: auto;"">
                                    <img src=""images/D94.png"" style= ""width:200px""alt=""img"">
                                </div>
                            </div>","200","","0","images/D94.png","","","","[""Rounded"",""Rectangular""]"
"","","","","","html-slider-response","26","66107","0.0-20.0","hbnp44r1p0","NaN","<div style=""width:500px;"">
                                <p style=""font-size:50px; font-weight:bold;""
                                ></p>
                                <div style=""width:240px; margin: auto;"">
                                    <img src=""images/D65.png"" style= ""width:200px""alt=""img"">
                                </div>
                            </div>","2","","0","images/D65.png","","","","[""Rounded"",""Rectangular""]"
"","","","","","html-slider-response","27","68294","0.0-21.0","hbnp44r1p0","NaN","<div style=""width:500px;"">
                                <p style=""font-size:50px; font-weight:bold;""
                                ></p>
                                <div style=""width:240px; margin: auto;"">
                                    <img src=""images/D34.png"" style= ""width:200px""alt=""img"">
                                </div>
                            </div>","-200","","0","images/D34.png","","","","[""Rounded"",""Rectangular""]"
"","","","","","html-slider-response","28","71333","0.0-22.0","hbnp44r1p0","NaN","<div style=""width:500px;"">
                                <p style=""font-size:50px; font-weight:bold;""
                                ></p>
                                <div style=""width:240px; margin: auto;"">
                                    <img src=""images/D76.png"" style= ""width:200px""alt=""img"">
                                </div>
                            </div>","-80","","0","images/D76.png","","","","[""Rounded"",""Rectangular""]"
"","","","","","html-slider-response","29","74035","0.0-23.0","hbnp44r1p0","NaN","<div style=""width:500px;"">
                                <p style=""font-size:50px; font-weight:bold;""
                                ></p>
                                <div style=""width:240px; margin: auto;"">
                                    <img src=""images/D84.png"" style= ""width:200px""alt=""img"">
                                </div>
                            </div>","34","","0","images/D84.png","","","","[""Rounded"",""Rectangular""]"
"","","","","","html-slider-response","30","77819","0.0-24.0","hbnp44r1p0","NaN","<div style=""width:500px;"">
                                <p style=""font-size:50px; font-weight:bold;""
                                ></p>
                                <div style=""width:240px; margin: auto;"">
                                    <img src=""images/D29.png"" style= ""width:200px""alt=""img"">
                                </div>
                            </div>","-62","","0","images/D29.png","","","","[""Rounded"",""Rectangular""]"
"","","","","","html-slider-response","31","79676","0.0-25.0","hbnp44r1p0","NaN","<div style=""width:500px;"">
                                <p style=""font-size:50px; font-weight:bold;""
                                ></p>
                                <div style=""width:240px; margin: auto;"">
                                    <img src=""images/D35.png"" style= ""width:200px""alt=""img"">
                                </div>
                            </div>","-120","","0","images/D35.png","","","","[""Rounded"",""Rectangular""]"
"","","","","","html-slider-response","32","81432","0.0-26.0","hbnp44r1p0","NaN","<div style=""width:500px;"">
                                <p style=""font-size:50px; font-weight:bold;""
                                ></p>
                                <div style=""width:240px; margin: auto;"">
                                    <img src=""images/D17.png"" style= ""width:200px""alt=""img"">
                                </div>
                            </div>","-109","","0","images/D17.png","","","","[""Rounded"",""Rectangular""]"
"","","","","","html-slider-response","33","83053","0.0-27.0","hbnp44r1p0","NaN","<div style=""width:500px;"">
                                <p style=""font-size:50px; font-weight:bold;""
                                ></p>
                                <div style=""width:240px; margin: auto;"">
                                    <img src=""images/D85.png"" style= ""width:200px""alt=""img"">
                                </div>
                            </div>","137","","0","images/D85.png","","","","[""Rounded"",""Rectangular""]"
"","","","","","html-slider-response","34","84871","0.0-28.0","hbnp44r1p0","NaN","<div style=""width:500px;"">
                                <p style=""font-size:50px; font-weight:bold;""
                                ></p>
                                <div style=""width:240px; margin: auto;"">
                                    <img src=""images/D66.png"" style= ""width:200px""alt=""img"">
                                </div>
                            </div>","-111","","0","images/D66.png","","","","[""Rounded"",""Rectangular""]"
"","","","","","html-slider-response","35","86996","0.0-29.0","hbnp44r1p0","NaN","<div style=""width:500px;"">
                                <p style=""font-size:50px; font-weight:bold;""
                                ></p>
                                <div style=""width:240px; margin: auto;"">
                                    <img src=""images/D105.png"" style= ""width:200px""alt=""img"">
                                </div>
                            </div>","130","","0","images/D105.png","","","","[""Rounded"",""Rectangular""]"
"","","","","","html-slider-response","36","88617","0.0-30.0","hbnp44r1p0","NaN","<div style=""width:500px;"">
                                <p style=""font-size:50px; font-weight:bold;""
                                ></p>
                                <div style=""width:240px; margin: auto;"">
                                    <img src=""images/D75.png"" style= ""width:200px""alt=""img"">
                                </div>
                            </div>","-153","","0","images/D75.png","","","","[""Rounded"",""Rectangular""]"
"","","","","","html-slider-response","37","90570","0.0-31.0","hbnp44r1p0","NaN","<div style=""width:500px;"">
                                <p style=""font-size:50px; font-weight:bold;""
                                ></p>
                                <div style=""width:240px; margin: auto;"">
                                    <img src=""images/D87.png"" style= ""width:200px""alt=""img"">
                                </div>
                            </div>","-110","","0","images/D87.png","","","","[""Rounded"",""Rectangular""]"
"","","","","","html-slider-response","38","92578","0.0-32.0","hbnp44r1p0","NaN","<div style=""width:500px;"">
                                <p style=""font-size:50px; font-weight:bold;""
                                ></p>
                                <div style=""width:240px; margin: auto;"">
                                    <img src=""images/D102.png"" style= ""width:200px""alt=""img"">
                                </div>
                            </div>","-99","","0","images/D102.png","","","","[""Rounded"",""Rectangular""]"
"","","","","","html-slider-response","39","94329","0.0-33.0","hbnp44r1p0","NaN","<div style=""width:500px;"">
                                <p style=""font-size:50px; font-weight:bold;""
                                ></p>
                                <div style=""width:240px; margin: auto;"">
                                    <img src=""images/D19.png"" style= ""width:200px""alt=""img"">
                                </div>
                            </div>","85","","0","images/D19.png","","","","[""Rounded"",""Rectangular""]"
"","","","","","html-slider-response","40","96256","0.0-34.0","hbnp44r1p0","NaN","<div style=""width:500px;"">
                                <p style=""font-size:50px; font-weight:bold;""
                                ></p>
                                <div style=""width:240px; margin: auto;"">
                                    <img src=""images/D24.png"" style= ""width:200px""alt=""img"">
                                </div>
                            </div>","-111","","0","images/D24.png","","","","[""Rounded"",""Rectangular""]"
"","","","","","html-slider-response","41","98686","0.0-35.0","hbnp44r1p0","NaN","<div style=""width:500px;"">
                                <p style=""font-size:50px; font-weight:bold;""
                                ></p>
                                <div style=""width:240px; margin: auto;"">
                                    <img src=""images/D74.png"" style= ""width:200px""alt=""img"">
                                </div>
                            </div>","-196","","0","images/D74.png","","","","[""Rounded"",""Rectangular""]"
"","","","","","html-slider-response","42","100489","0.0-36.0","hbnp44r1p0","NaN","<div style=""width:500px;"">
                                <p style=""font-size:50px; font-weight:bold;""
                                ></p>
                                <div style=""width:240px; margin: auto;"">
                                    <img src=""images/D57.png"" style= ""width:200px""alt=""img"">
                                </div>
                            </div>","-200","","0","images/D57.png","","","","[""Rounded"",""Rectangular""]"
"","","","","","html-slider-response","43","102589","0.0-37.0","hbnp44r1p0","NaN","<div style=""width:500px;"">
                                <p style=""font-size:50px; font-weight:bold;""
                                ></p>
                                <div style=""width:240px; margin: auto;"">
                                    <img src=""images/D6.png"" style= ""width:200px""alt=""img"">
                                </div>
                            </div>","200","","0","images/D6.png","","","","[""Rounded"",""Rectangular""]"
"","","","","","html-slider-response","44","105021","0.0-38.0","hbnp44r1p0","NaN","<div style=""width:500px;"">
                                <p style=""font-size:50px; font-weight:bold;""
                                ></p>
                                <div style=""width:240px; margin: auto;"">
                                    <img src=""images/D104.png"" style= ""width:200px""alt=""img"">
                                </div>
                            </div>","-110","","0","images/D104.png","","","","[""Rounded"",""Rectangular""]"
"","","","","","html-slider-response","45","106690","0.0-39.0","hbnp44r1p0","NaN","<div style=""width:500px;"">
                                <p style=""font-size:50px; font-weight:bold;""
                                ></p>
                                <div style=""width:240px; margin: auto;"">
                                    <img src=""images/D25.png"" style= ""width:200px""alt=""img"">
                                </div>
                            </div>","200","","0","images/D25.png","","","","[""Rounded"",""Rectangular""]"
"","","","","","html-slider-response","46","109051","0.0-40.0","hbnp44r1p0","NaN","<div style=""width:500px;"">
                                <p style=""font-size:50px; font-weight:bold;""
                                ></p>
                                <div style=""width:240px; margin: auto;"">
                                    <img src=""images/D81.png"" style= ""width:200px""alt=""img"">
                                </div>
                            </div>","-106","","0","images/D81.png","","","","[""Rounded"",""Rectangular""]"
"","","","","","html-slider-response","47","110861","0.0-41.0","hbnp44r1p0","NaN","<div style=""width:500px;"">
                                <p style=""font-size:50px; font-weight:bold;""
                                ></p>
                                <div style=""width:240px; margin: auto;"">
                                    <img src=""images/D111.png"" style= ""width:200px""alt=""img"">
                                </div>
                            </div>","-200","","0","images/D111.png","","","","[""Rounded"",""Rectangular""]"
"","","","","","html-slider-response","48","112939","0.0-42.0","hbnp44r1p0","NaN","<div style=""width:500px;"">
                                <p style=""font-size:50px; font-weight:bold;""
                                ></p>
                                <div style=""width:240px; margin: auto;"">
                                    <img src=""images/D52.png"" style= ""width:200px""alt=""img"">
                                </div>
                            </div>","200","","0","images/D52.png","","","","[""Rounded"",""Rectangular""]"
"","","","","","html-slider-response","49","115142","0.0-43.0","hbnp44r1p0","NaN","<div style=""width:500px;"">
                                <p style=""font-size:50px; font-weight:bold;""
                                ></p>
                                <div style=""width:240px; margin: auto;"">
                                    <img src=""images/D68.png"" style= ""width:200px""alt=""img"">
                                </div>
                            </div>","200","","0","images/D68.png","","","","[""Rounded"",""Rectangular""]"
"","","","","","html-slider-response","50","117827","0.0-44.0","hbnp44r1p0","NaN","<div style=""width:500px;"">
                                <p style=""font-size:50px; font-weight:bold;""
                                ></p>
                                <div style=""width:240px; margin: auto;"">
                                    <img src=""images/D22.png"" style= ""width:200px""alt=""img"">
                                </div>
                            </div>","-114","","0","images/D22.png","","","","[""Rounded"",""Rectangular""]"
"","","","","","html-slider-response","51","120006","0.0-45.0","hbnp44r1p0","NaN","<div style=""width:500px;"">
                                <p style=""font-size:50px; font-weight:bold;""
                                ></p>
                                <div style=""width:240px; margin: auto;"">
                                    <img src=""images/D55.png"" style= ""width:200px""alt=""img"">
                                </div>
                            </div>","200","","0","images/D55.png","","","","[""Rounded"",""Rectangular""]"
"","","","","","html-slider-response","52","121815","0.0-46.0","hbnp44r1p0","NaN","<div style=""width:500px;"">
                                <p style=""font-size:50px; font-weight:bold;""
                                ></p>
                                <div style=""width:240px; margin: auto;"">
                                    <img src=""images/D101.png"" style= ""width:200px""alt=""img"">
                                </div>
                            </div>","-200","","0","images/D101.png","","","","[""Rounded"",""Rectangular""]"
"","","","","","html-slider-response","53","123674","0.0-47.0","hbnp44r1p0","NaN","<div style=""width:500px;"">
                                <p style=""font-size:50px; font-weight:bold;""
                                ></p>
                                <div style=""width:240px; margin: auto;"">
                                    <img src=""images/D51.png"" style= ""width:200px""alt=""img"">
                                </div>
                            </div>","200","","0","images/D51.png","","","","[""Rounded"",""Rectangular""]"
"","","","","","html-slider-response","54","125931","0.0-48.0","hbnp44r1p0","NaN","<div style=""width:500px;"">
                                <p style=""font-size:50px; font-weight:bold;""
                                ></p>
                                <div style=""width:240px; margin: auto;"">
                                    <img src=""images/D92.png"" style= ""width:200px""alt=""img"">
                                </div>
                            </div>","-90","","0","images/D92.png","","","","[""Rounded"",""Rectangular""]"
"","","","","","html-slider-response","55","127411","0.0-49.0","hbnp44r1p0","NaN","<div style=""width:500px;"">
                                <p style=""font-size:50px; font-weight:bold;""
                                ></p>
                                <div style=""width:240px; margin: auto;"">
                                    <img src=""images/D16.png"" style= ""width:200px""alt=""img"">
                                </div>
                            </div>","200","","0","images/D16.png","","","","[""Rounded"",""Rectangular""]"
"","","","","","html-slider-response","56","129812","0.0-50.0","hbnp44r1p0","NaN","<div style=""width:500px;"">
                                <p style=""font-size:50px; font-weight:bold;""
                                ></p>
                                <div style=""width:240px; margin: auto;"">
                                    <img src=""images/D103.png"" style= ""width:200px""alt=""img"">
                                </div>
                            </div>","-113","","0","images/D103.png","","","","[""Rounded"",""Rectangular""]"
"","","","","","html-slider-response","57","132512","0.0-51.0","hbnp44r1p0","NaN","<div style=""width:500px;"">
                                <p style=""font-size:50px; font-weight:bold;""
                                ></p>
                                <div style=""width:240px; margin: auto;"">
                                    <img src=""images/D46.png"" style= ""width:200px""alt=""img"">
                                </div>
                            </div>","0","","0","images/D46.png","","","","[""Rounded"",""Rectangular""]"
"","","","","","html-slider-response","58","134322","0.0-52.0","hbnp44r1p0","NaN","<div style=""width:500px;"">
                                <p style=""font-size:50px; font-weight:bold;""
                                ></p>
                                <div style=""width:240px; margin: auto;"">
                                    <img src=""images/D53.png"" style= ""width:200px""alt=""img"">
                                </div>
                            </div>","155","","0","images/D53.png","","","","[""Rounded"",""Rectangular""]"
"","","","","","html-slider-response","59","136054","0.0-53.0","hbnp44r1p0","NaN","<div style=""width:500px;"">
                                <p style=""font-size:50px; font-weight:bold;""
                                ></p>
                                <div style=""width:240px; margin: auto;"">
                                    <img src=""images/D21.png"" style= ""width:200px""alt=""img"">
                                </div>
                            </div>","87","","0","images/D21.png","","","","[""Rounded"",""Rectangular""]"
"","","","","","html-slider-response","60","138760","0.0-54.0","hbnp44r1p0","NaN","<div style=""width:500px;"">
                                <p style=""font-size:50px; font-weight:bold;""
                                ></p>
                                <div style=""width:240px; margin: auto;"">
                                    <img src=""images/D79.png"" style= ""width:200px""alt=""img"">
                                </div>
                            </div>","140","","0","images/D79.png","","","","[""Rounded"",""Rectangular""]"
"","","","","","html-slider-response","61","140256","0.0-55.0","hbnp44r1p0","NaN","<div style=""width:500px;"">
                                <p style=""font-size:50px; font-weight:bold;""
                                ></p>
                                <div style=""width:240px; margin: auto;"">
                                    <img src=""images/D32.png"" style= ""width:200px""alt=""img"">
                                </div>
                            </div>","-153","","0","images/D32.png","","","","[""Rounded"",""Rectangular""]"
"","","","","","html-slider-response","62","141930","0.0-56.0","hbnp44r1p0","NaN","<div style=""width:500px;"">
                                <p style=""font-size:50px; font-weight:bold;""
                                ></p>
                                <div style=""width:240px; margin: auto;"">
                                    <img src=""images/D11.png"" style= ""width:200px""alt=""img"">
                                </div>
                            </div>","-134","","0","images/D11.png","","","","[""Rounded"",""Rectangular""]"
"","","","","","html-slider-response","63","143507","0.0-57.0","hbnp44r1p0","NaN","<div style=""width:500px;"">
                                <p style=""font-size:50px; font-weight:bold;""
                                ></p>
                                <div style=""width:240px; margin: auto;"">
                                    <img src=""images/D95.png"" style= ""width:200px""alt=""img"">
                                </div>
                            </div>","200","","0","images/D95.png","","","","[""Rounded"",""Rectangular""]"
"","","","","","html-slider-response","64","145183","0.0-58.0","hbnp44r1p0","NaN","<div style=""width:500px;"">
                                <p style=""font-size:50px; font-weight:bold;""
                                ></p>
                                <div style=""width:240px; margin: auto;"">
                                    <img src=""images/D1.png"" style= ""width:200px""alt=""img"">
                                </div>
                            </div>","200","","0","images/D1.png","","","","[""Rounded"",""Rectangular""]"
"","","","","","html-slider-response","65","146726","0.0-59.0","hbnp44r1p0","NaN","<div style=""width:500px;"">
                                <p style=""font-size:50px; font-weight:bold;""
                                ></p>
                                <div style=""width:240px; margin: auto;"">
                                    <img src=""images/D96.png"" style= ""width:200px""alt=""img"">
                                </div>
                            </div>","200","","0","images/D96.png","","","","[""Rounded"",""Rectangular""]"
"","","","","","html-slider-response","66","149150","0.0-60.0","hbnp44r1p0","NaN","<div style=""width:500px;"">
                                <p style=""font-size:50px; font-weight:bold;""
                                ></p>
                                <div style=""width:240px; margin: auto;"">
                                    <img src=""images/D36.png"" style= ""width:200px""alt=""img"">
                                </div>
                            </div>","-122","","0","images/D36.png","","","","[""Rounded"",""Rectangular""]"
"","","","","","html-slider-response","67","150813","0.0-61.0","hbnp44r1p0","NaN","<div style=""width:500px;"">
                                <p style=""font-size:50px; font-weight:bold;""
                                ></p>
                                <div style=""width:240px; margin: auto;"">
                                    <img src=""images/D4.png"" style= ""width:200px""alt=""img"">
                                </div>
                            </div>","-122","","0","images/D4.png","","","","[""Rounded"",""Rectangular""]"
"","","","","","html-slider-response","68","154533","0.0-62.0","hbnp44r1p0","NaN","<div style=""width:500px;"">
                                <p style=""font-size:50px; font-weight:bold;""
                                ></p>
                                <div style=""width:240px; margin: auto;"">
                                    <img src=""images/D8.png"" style= ""width:200px""alt=""img"">
                                </div>
                            </div>","2","","0","images/D8.png","","","","[""Rounded"",""Rectangular""]"
"","","","","","html-slider-response","69","155847","0.0-63.0","hbnp44r1p0","NaN","<div style=""width:500px;"">
                                <p style=""font-size:50px; font-weight:bold;""
                                ></p>
                                <div style=""width:240px; margin: auto;"">
                                    <img src=""images/D83.png"" style= ""width:200px""alt=""img"">
                                </div>
                            </div>","154","","0","images/D83.png","","","","[""Rounded"",""Rectangular""]"
"","","","","","html-slider-response","70","157770","0.0-64.0","hbnp44r1p0","NaN","<div style=""width:500px;"">
                                <p style=""font-size:50px; font-weight:bold;""
                                ></p>
                                <div style=""width:240px; margin: auto;"">
                                    <img src=""images/D77.png"" style= ""width:200px""alt=""img"">
                                </div>
                            </div>","-70","","0","images/D77.png","","","","[""Rounded"",""Rectangular""]"
"","","","","","html-slider-response","71","159587","0.0-65.0","hbnp44r1p0","NaN","<div style=""width:500px;"">
                                <p style=""font-size:50px; font-weight:bold;""
                                ></p>
                                <div style=""width:240px; margin: auto;"">
                                    <img src=""images/D14.png"" style= ""width:200px""alt=""img"">
                                </div>
                            </div>","-96","","0","images/D14.png","","","","[""Rounded"",""Rectangular""]"
"","","","","","html-slider-response","72","161287","0.0-66.0","hbnp44r1p0","NaN","<div style=""width:500px;"">
                                <p style=""font-size:50px; font-weight:bold;""
                                ></p>
                                <div style=""width:240px; margin: auto;"">
                                    <img src=""images/D3.png"" style= ""width:200px""alt=""img"">
                                </div>
                            </div>","-118","","0","images/D3.png","","","","[""Rounded"",""Rectangular""]"
"","","","","","html-slider-response","73","163625","0.0-67.0","hbnp44r1p0","NaN","<div style=""width:500px;"">
                                <p style=""font-size:50px; font-weight:bold;""
                                ></p>
                                <div style=""width:240px; margin: auto;"">
                                    <img src=""images/D78.png"" style= ""width:200px""alt=""img"">
                                </div>
                            </div>","-98","","0","images/D78.png","","","","[""Rounded"",""Rectangular""]"
"","","","","","html-slider-response","74","165220","0.0-68.0","hbnp44r1p0","NaN","<div style=""width:500px;"">
                                <p style=""font-size:50px; font-weight:bold;""
                                ></p>
                                <div style=""width:240px; margin: auto;"">
                                    <img src=""images/D64.png"" style= ""width:200px""alt=""img"">
                                </div>
                            </div>","148","","0","images/D64.png","","","","[""Rounded"",""Rectangular""]"
"","","","","","html-slider-response","75","167024","0.0-69.0","hbnp44r1p0","NaN","<div style=""width:500px;"">
                                <p style=""font-size:50px; font-weight:bold;""
                                ></p>
                                <div style=""width:240px; margin: auto;"">
                                    <img src=""images/D80.png"" style= ""width:200px""alt=""img"">
                                </div>
                            </div>","128","","0","images/D80.png","","","","[""Rounded"",""Rectangular""]"
"","","","","","html-slider-response","76","168494","0.0-70.0","hbnp44r1p0","NaN","<div style=""width:500px;"">
                                <p style=""font-size:50px; font-weight:bold;""
                                ></p>
                                <div style=""width:240px; margin: auto;"">
                                    <img src=""images/D106.png"" style= ""width:200px""alt=""img"">
                                </div>
                            </div>","161","","0","images/D106.png","","","","[""Rounded"",""Rectangular""]"
"","","","","","html-slider-response","77","170779","0.0-71.0","hbnp44r1p0","NaN","<div style=""width:500px;"">
                                <p style=""font-size:50px; font-weight:bold;""
                                ></p>
                                <div style=""width:240px; margin: auto;"">
                                    <img src=""images/D9.png"" style= ""width:200px""alt=""img"">
                                </div>
                            </div>","-110","","0","images/D9.png","","","","[""Rounded"",""Rectangular""]"
"","","","","","html-slider-response","78","172580","0.0-72.0","hbnp44r1p0","NaN","<div style=""width:500px;"">
                                <p style=""font-size:50px; font-weight:bold;""
                                ></p>
                                <div style=""width:240px; margin: auto;"">
                                    <img src=""images/D82.png"" style= ""width:200px""alt=""img"">
                                </div>
                            </div>","-111","","0","images/D82.png","","","","[""Rounded"",""Rectangular""]"
"","","","","","html-slider-response","79","175216","0.0-73.0","hbnp44r1p0","NaN","<div style=""width:500px;"">
                                <p style=""font-size:50px; font-weight:bold;""
                                ></p>
                                <div style=""width:240px; margin: auto;"">
                                    <img src=""images/D18.png"" style= ""width:200px""alt=""img"">
                                </div>
                            </div>","0","","0","images/D18.png","","","","[""Rounded"",""Rectangular""]"
"","","","","","html-slider-response","80","176901","0.0-74.0","hbnp44r1p0","NaN","<div style=""width:500px;"">
                                <p style=""font-size:50px; font-weight:bold;""
                                ></p>
                                <div style=""width:240px; margin: auto;"">
                                    <img src=""images/D48.png"" style= ""width:200px""alt=""img"">
                                </div>
                            </div>","-200","","0","images/D48.png","","","","[""Rounded"",""Rectangular""]"
"","","","","","html-slider-response","81","179334","0.0-75.0","hbnp44r1p0","NaN","<div style=""width:500px;"">
                                <p style=""font-size:50px; font-weight:bold;""
                                ></p>
                                <div style=""width:240px; margin: auto;"">
                                    <img src=""images/D20.png"" style= ""width:200px""alt=""img"">
                                </div>
                            </div>","-3","","0","images/D20.png","","","","[""Rounded"",""Rectangular""]"
"","","","","","html-button-response","82","182967","0.0-76.0","hbnp44r1p0","3130","You have completed the first block of trials out of six. Please click 'Continue' when you are ready proceed.","0","","","","","","",""
"","","","","","html-button-response","83","184659","0.0-77.0","hbnp44r1p0","1691","In the following trials, you will be asked to rate textures on the scale <b>Blobby</b> versus <b>Stripey</b>. Please click 'Continue' when you are ready proceed.","0","","","","","","",""
"","","","","","html-slider-response","84","187378","0.0-78.0","hbnp44r1p0","NaN","<div style=""width:500px;"">
                                <p style=""font-size:50px; font-weight:bold;""
                                ></p>
                                <div style=""width:240px; margin: auto;"">
                                    <img src=""images/D104.png"" style= ""width:200px""alt=""img"">
                                </div>
                            </div>","-127","","0","images/D104.png","","","","[""Blobby"",""Stripey""]"
"","","","","","html-slider-response","85","189761","0.0-79.0","hbnp44r1p0","NaN","<div style=""width:500px;"">
                                <p style=""font-size:50px; font-weight:bold;""
                                ></p>
                                <div style=""width:240px; margin: auto;"">
                                    <img src=""images/D17.png"" style= ""width:200px""alt=""img"">
                                </div>
                            </div>","200","","0","images/D17.png","","","","[""Blobby"",""Stripey""]"
"","","","","","html-slider-response","86","191509","0.0-80.0","hbnp44r1p0","NaN","<div style=""width:500px;"">
                                <p style=""font-size:50px; font-weight:bold;""
                                ></p>
                                <div style=""width:240px; margin: auto;"">
                                    <img src=""images/D52.png"" style= ""width:200px""alt=""img"">
                                </div>
                            </div>","200","","0","images/D52.png","","","","[""Blobby"",""Stripey""]"
"","","","","","html-slider-response","87","193327","0.0-81.0","hbnp44r1p0","NaN","<div style=""width:500px;"">
                                <p style=""font-size:50px; font-weight:bold;""
                                ></p>
                                <div style=""width:240px; margin: auto;"">
                                    <img src=""images/D32.png"" style= ""width:200px""alt=""img"">
                                </div>
                            </div>","-200","","0","images/D32.png","","","","[""Blobby"",""Stripey""]"
"","","","","","html-slider-response","88","195948","0.0-82.0","hbnp44r1p0","NaN","<div style=""width:500px;"">
                                <p style=""font-size:50px; font-weight:bold;""
                                ></p>
                                <div style=""width:240px; margin: auto;"">
                                    <img src=""images/D14.png"" style= ""width:200px""alt=""img"">
                                </div>
                            </div>","-2","","0","images/D14.png","","","","[""Blobby"",""Stripey""]"
"","","","","","html-slider-response","89","198213","0.0-83.0","hbnp44r1p0","NaN","<div style=""width:500px;"">
                                <p style=""font-size:50px; font-weight:bold;""
                                ></p>
                                <div style=""width:240px; margin: auto;"">
                                    <img src=""images/D51.png"" style= ""width:200px""alt=""img"">
                                </div>
                            </div>","200","","0","images/D51.png","","","","[""Blobby"",""Stripey""]"
"","","","","","html-slider-response","90","200435","0.0-84.0","hbnp44r1p0","NaN","<div style=""width:500px;"">
                                <p style=""font-size:50px; font-weight:bold;""
                                ></p>
                                <div style=""width:240px; margin: auto;"">
                                    <img src=""images/D11.png"" style= ""width:200px""alt=""img"">
                                </div>
                            </div>","200","","0","images/D11.png","","","","[""Blobby"",""Stripey""]"
"","","","","","html-slider-response","91","202285","0.0-85.0","hbnp44r1p0","NaN","<div style=""width:500px;"">
                                <p style=""font-size:50px; font-weight:bold;""
                                ></p>
                                <div style=""width:240px; margin: auto;"">
                                    <img src=""images/D106.png"" style= ""width:200px""alt=""img"">
                                </div>
                            </div>","200","","0","images/D106.png","","","","[""Blobby"",""Stripey""]"
"","","","","","html-slider-response","92","204163","0.0-86.0","hbnp44r1p0","NaN","<div style=""width:500px;"">
                                <p style=""font-size:50px; font-weight:bold;""
                                ></p>
                                <div style=""width:240px; margin: auto;"">
                                    <img src=""images/D80.png"" style= ""width:200px""alt=""img"">
                                </div>
                            </div>","-132","","0","images/D80.png","","","","[""Blobby"",""Stripey""]"
"","","","","","html-slider-response","93","210731","0.0-87.0","hbnp44r1p0","NaN","<div style=""width:500px;"">
                                <p style=""font-size:50px; font-weight:bold;""
                                ></p>
                                <div style=""width:240px; margin: auto;"">
                                    <img src=""images/D83.png"" style= ""width:200px""alt=""img"">
                                </div>
                            </div>","200","","0","images/D83.png","","","","[""Blobby"",""Stripey""]"
"","","","","","html-slider-response","94","213279","0.0-88.0","hbnp44r1p0","NaN","<div style=""width:500px;"">
                                <p style=""font-size:50px; font-weight:bold;""
                                ></p>
                                <div style=""width:240px; margin: auto;"">
                                    <img src=""images/D20.png"" style= ""width:200px""alt=""img"">
                                </div>
                            </div>","200","","0","images/D20.png","","","","[""Blobby"",""Stripey""]"
"","","","","","html-slider-response","95","215268","0.0-89.0","hbnp44r1p0","NaN","<div style=""width:500px;"">
                                <p style=""font-size:50px; font-weight:bold;""
                                ></p>
                                <div style=""width:240px; margin: auto;"">
                                    <img src=""images/D49.png"" style= ""width:200px""alt=""img"">
                                </div>
                            </div>","200","","0","images/D49.png","","","","[""Blobby"",""Stripey""]"
"","","","","","html-slider-response","96","218174","0.0-90.0","hbnp44r1p0","NaN","<div style=""width:500px;"">
                                <p style=""font-size:50px; font-weight:bold;""
                                ></p>
                                <div style=""width:240px; margin: auto;"">
                                    <img src=""images/D102.png"" style= ""width:200px""alt=""img"">
                                </div>
                            </div>","200","","0","images/D102.png","","","","[""Blobby"",""Stripey""]"
"","","","","","html-slider-response","97","219961","0.0-91.0","hbnp44r1p0","NaN","<div style=""width:500px;"">
                                <p style=""font-size:50px; font-weight:bold;""
                                ></p>
                                <div style=""width:240px; margin: auto;"">
                                    <img src=""images/D76.png"" style= ""width:200px""alt=""img"">
                                </div>
                            </div>","200","","0","images/D76.png","","","","[""Blobby"",""Stripey""]"
"","","","","","html-slider-response","98","222247","0.0-92.0","hbnp44r1p0","NaN","<div style=""width:500px;"">
                                <p style=""font-size:50px; font-weight:bold;""
                                ></p>
                                <div style=""width:240px; margin: auto;"">
                                    <img src=""images/D35.png"" style= ""width:200px""alt=""img"">
                                </div>
                            </div>","-55","","0","images/D35.png","","","","[""Blobby"",""Stripey""]"
"","","","","","html-slider-response","99","225251","0.0-93.0","hbnp44r1p0","NaN","<div style=""width:500px;"">
                                <p style=""font-size:50px; font-weight:bold;""
                                ></p>
                                <div style=""width:240px; margin: auto;"">
                                    <img src=""images/D37.png"" style= ""width:200px""alt=""img"">
                                </div>
                            </div>","0","","0","images/D37.png","","","","[""Blobby"",""Stripey""]"
"","","","","","html-slider-response","100","227022","0.0-94.0","hbnp44r1p0","NaN","<div style=""width:500px;"">
                                <p style=""font-size:50px; font-weight:bold;""
                                ></p>
                                <div style=""width:240px; margin: auto;"">
                                    <img src=""images/D101.png"" style= ""width:200px""alt=""img"">
                                </div>
                            </div>","200","","0","images/D101.png","","","","[""Blobby"",""Stripey""]"
"","","","","","html-slider-response","101","228620","0.0-95.0","hbnp44r1p0","NaN","<div style=""width:500px;"">
                                <p style=""font-size:50px; font-weight:bold;""
                                ></p>
                                <div style=""width:240px; margin: auto;"">
                                    <img src=""images/D55.png"" style= ""width:200px""alt=""img"">
                                </div>
                            </div>","200","","0","images/D55.png","","","","[""Blobby"",""Stripey""]"
"","","","","","html-slider-response","102","231256","0.0-96.0","hbnp44r1p0","NaN","<div style=""width:500px;"">
                                <p style=""font-size:50px; font-weight:bold;""
                                ></p>
                                <div style=""width:240px; margin: auto;"">
                                    <img src=""images/D84.png"" style= ""width:200px""alt=""img"">
                                </div>
                            </div>","3","","0","images/D84.png","","","","[""Blobby"",""Stripey""]"
"","","","","","html-slider-response","103","234814","0.0-97.0","hbnp44r1p0","NaN","<div style=""width:500px;"">
                                <p style=""font-size:50px; font-weight:bold;""
                                ></p>
                                <div style=""width:240px; margin: auto;"">
                                    <img src=""images/D34.png"" style= ""width:200px""alt=""img"">
                                </div>
                            </div>","1","","0","images/D34.png","","","","[""Blobby"",""Stripey""]"
"","","","","","html-slider-response","104","236678","0.0-98.0","hbnp44r1p0","NaN","<div style=""width:500px;"">
                                <p style=""font-size:50px; font-weight:bold;""
                                ></p>
                                <div style=""width:240px; margin: auto;"">
                                    <img src=""images/D78.png"" style= ""width:200px""alt=""img"">
                                </div>
                            </div>","200","","0","images/D78.png","","","","[""Blobby"",""Stripey""]"
"","","","","","html-slider-response","105","238157","0.0-99.0","hbnp44r1p0","NaN","<div style=""width:500px;"">
                                <p style=""font-size:50px; font-weight:bold;""
                                ></p>
                                <div style=""width:240px; margin: auto;"">
                                    <img src=""images/D47.png"" style= ""width:200px""alt=""img"">
                                </div>
                            </div>","200","","0","images/D47.png","","","","[""Blobby"",""Stripey""]"
"","","","","","html-slider-response","106","239503","0.0-100.0","hbnp44r1p0","NaN","<div style=""width:500px;"">
                                <p style=""font-size:50px; font-weight:bold;""
                                ></p>
                                <div style=""width:240px; margin: auto;"">
                                    <img src=""images/D26.png"" style= ""width:200px""alt=""img"">
                                </div>
                            </div>","200","","0","images/D26.png","","","","[""Blobby"",""Stripey""]"
"","","","","","html-slider-response","107","242226","0.0-101.0","hbnp44r1p0","NaN","<div style=""width:500px;"">
                                <p style=""font-size:50px; font-weight:bold;""
                                ></p>
                                <div style=""width:240px; margin: auto;"">
                                    <img src=""images/D87.png"" style= ""width:200px""alt=""img"">
                                </div>
                            </div>","0","","0","images/D87.png","","","","[""Blobby"",""Stripey""]"
"","","","","","html-slider-response","108","243573","0.0-102.0","hbnp44r1p0","NaN","<div style=""width:500px;"">
                                <p style=""font-size:50px; font-weight:bold;""
                                ></p>
                                <div style=""width:240px; margin: auto;"">
                                    <img src=""images/D95.png"" style= ""width:200px""alt=""img"">
                                </div>
                            </div>","200","","0","images/D95.png","","","","[""Blobby"",""Stripey""]"
"","","","","","html-slider-response","109","244966","0.0-103.0","hbnp44r1p0","NaN","<div style=""width:500px;"">
                                <p style=""font-size:50px; font-weight:bold;""
                                ></p>
                                <div style=""width:240px; margin: auto;"">
                                    <img src=""images/D56.png"" style= ""width:200px""alt=""img"">
                                </div>
                            </div>","200","","0","images/D56.png","","","","[""Blobby"",""Stripey""]"
"","","","","","html-slider-response","110","246462","0.0-104.0","hbnp44r1p0","NaN","<div style=""width:500px;"">
                                <p style=""font-size:50px; font-weight:bold;""
                                ></p>
                                <div style=""width:240px; margin: auto;"">
                                    <img src=""images/D77.png"" style= ""width:200px""alt=""img"">
                                </div>
                            </div>","200","","0","images/D77.png","","","","[""Blobby"",""Stripey""]"
"","","","","","html-slider-response","111","248012","0.0-105.0","hbnp44r1p0","NaN","<div style=""width:500px;"">
                                <p style=""font-size:50px; font-weight:bold;""
                                ></p>
                                <div style=""width:240px; margin: auto;"">
                                    <img src=""images/D68.png"" style= ""width:200px""alt=""img"">
                                </div>
                            </div>","200","","0","images/D68.png","","","","[""Blobby"",""Stripey""]"
"","","","","","html-slider-response","112","250631","0.0-106.0","hbnp44r1p0","NaN","<div style=""width:500px;"">
                                <p style=""font-size:50px; font-weight:bold;""
                                ></p>
                                <div style=""width:240px; margin: auto;"">
                                    <img src=""images/D111.png"" style= ""width:200px""alt=""img"">
                                </div>
                            </div>","-1","","0","images/D111.png","","","","[""Blobby"",""Stripey""]"
"","","","","","html-slider-response","113","251993","0.0-107.0","hbnp44r1p0","NaN","<div style=""width:500px;"">
                                <p style=""font-size:50px; font-weight:bold;""
                                ></p>
                                <div style=""width:240px; margin: auto;"">
                                    <img src=""images/D96.png"" style= ""width:200px""alt=""img"">
                                </div>
                            </div>","200","","0","images/D96.png","","","","[""Blobby"",""Stripey""]"
"","","","","","html-slider-response","114","254505","0.0-108.0","hbnp44r1p0","NaN","<div style=""width:500px;"">
                                <p style=""font-size:50px; font-weight:bold;""
                                ></p>
                                <div style=""width:240px; margin: auto;"">
                                    <img src=""images/D18.png"" style= ""width:200px""alt=""img"">
                                </div>
                            </div>","0","","0","images/D18.png","","","","[""Blobby"",""Stripey""]"
"","","","","","html-slider-response","115","256937","0.0-109.0","hbnp44r1p0","NaN","<div style=""width:500px;"">
                                <p style=""font-size:50px; font-weight:bold;""
                                ></p>
                                <div style=""width:240px; margin: auto;"">
                                    <img src=""images/D4.png"" style= ""width:200px""alt=""img"">
                                </div>
                            </div>","-143","","0","images/D4.png","","","","[""Blobby"",""Stripey""]"
"","","","","","html-slider-response","116","258540","0.0-110.0","hbnp44r1p0","NaN","<div style=""width:500px;"">
                                <p style=""font-size:50px; font-weight:bold;""
                                ></p>
                                <div style=""width:240px; margin: auto;"">
                                    <img src=""images/D9.png"" style= ""width:200px""alt=""img"">
                                </div>
                            </div>","-136","","0","images/D9.png","","","","[""Blobby"",""Stripey""]"
"","","","","","html-slider-response","117","260155","0.0-111.0","hbnp44r1p0","NaN","<div style=""width:500px;"">
                                <p style=""font-size:50px; font-weight:bold;""
                                ></p>
                                <div style=""width:240px; margin: auto;"">
                                    <img src=""images/D25.png"" style= ""width:200px""alt=""img"">
                                </div>
                            </div>","200","","0","images/D25.png","","","","[""Blobby"",""Stripey""]"
"","","","","","html-slider-response","118","261736","0.0-112.0","hbnp44r1p0","NaN","<div style=""width:500px;"">
                                <p style=""font-size:50px; font-weight:bold;""
                                ></p>
                                <div style=""width:240px; margin: auto;"">
                                    <img src=""images/D64.png"" style= ""width:200px""alt=""img"">
                                </div>
                            </div>","200","","0","images/D64.png","","","","[""Blobby"",""Stripey""]"
"","","","","","html-slider-response","119","264247","0.0-113.0","hbnp44r1p0","NaN","<div style=""width:500px;"">
                                <p style=""font-size:50px; font-weight:bold;""
                                ></p>
                                <div style=""width:240px; margin: auto;"">
                                    <img src=""images/D46.png"" style= ""width:200px""alt=""img"">
                                </div>
                            </div>","-2","","0","images/D46.png","","","","[""Blobby"",""Stripey""]"
"","","","","","html-slider-response","120","265663","0.0-114.0","hbnp44r1p0","NaN","<div style=""width:500px;"">
                                <p style=""font-size:50px; font-weight:bold;""
                                ></p>
                                <div style=""width:240px; margin: auto;"">
                                    <img src=""images/D85.png"" style= ""width:200px""alt=""img"">
                                </div>
                            </div>","200","","0","images/D85.png","","","","[""Blobby"",""Stripey""]"
"","","","","","html-slider-response","121","267884","0.0-115.0","hbnp44r1p0","NaN","<div style=""width:500px;"">
                                <p style=""font-size:50px; font-weight:bold;""
                                ></p>
                                <div style=""width:240px; margin: auto;"">
                                    <img src=""images/D66.png"" style= ""width:200px""alt=""img"">
                                </div>
                            </div>","-111","","0","images/D66.png","","","","[""Blobby"",""Stripey""]"
"","","","","","html-slider-response","122","269583","0.0-116.0","hbnp44r1p0","NaN","<div style=""width:500px;"">
                                <p style=""font-size:50px; font-weight:bold;""
                                ></p>
                                <div style=""width:240px; margin: auto;"">
                                    <img src=""images/D53.png"" style= ""width:200px""alt=""img"">
                                </div>
                            </div>","200","","0","images/D53.png","","","","[""Blobby"",""Stripey""]"
"","","","","","html-slider-response","123","271929","0.0-117.0","hbnp44r1p0","NaN","<div style=""width:500px;"">
                                <p style=""font-size:50px; font-weight:bold;""
                                ></p>
                                <div style=""width:240px; margin: auto;"">
                                    <img src=""images/D22.png"" style= ""width:200px""alt=""img"">
                                </div>
                            </div>","-166","","0","images/D22.png","","","","[""Blobby"",""Stripey""]"
"","","","","","html-slider-response","124","273664","0.0-118.0","hbnp44r1p0","NaN","<div style=""width:500px;"">
                                <p style=""font-size:50px; font-weight:bold;""
                                ></p>
                                <div style=""width:240px; margin: auto;"">
                                    <img src=""images/D103.png"" style= ""width:200px""alt=""img"">
                                </div>
                            </div>","5","","0","images/D103.png","","","","[""Blobby"",""Stripey""]"
"","","","","","html-slider-response","125","274895","0.0-119.0","hbnp44r1p0","NaN","<div style=""width:500px;"">
                                <p style=""font-size:50px; font-weight:bold;""
                                ></p>
                                <div style=""width:240px; margin: auto;"">
                                    <img src=""images/D8.png"" style= ""width:200px""alt=""img"">
                                </div>
                            </div>","2","","0","images/D8.png","","","","[""Blobby"",""Stripey""]"
"","","","","","html-slider-response","126","277225","0.0-120.0","hbnp44r1p0","NaN","<div style=""width:500px;"">
                                <p style=""font-size:50px; font-weight:bold;""
                                ></p>
                                <div style=""width:240px; margin: auto;"">
                                    <img src=""images/D92.png"" style= ""width:200px""alt=""img"">
                                </div>
                            </div>","-102","","0","images/D92.png","","","","[""Blobby"",""Stripey""]"
"","","","","","html-slider-response","127","278878","0.0-121.0","hbnp44r1p0","NaN","<div style=""width:500px;"">
                                <p style=""font-size:50px; font-weight:bold;""
                                ></p>
                                <div style=""width:240px; margin: auto;"">
                                    <img src=""images/D21.png"" style= ""width:200px""alt=""img"">
                                </div>
                            </div>","200","","0","images/D21.png","","","","[""Blobby"",""Stripey""]"
"","","","","","html-slider-response","128","280830","0.0-122.0","hbnp44r1p0","NaN","<div style=""width:500px;"">
                                <p style=""font-size:50px; font-weight:bold;""
                                ></p>
                                <div style=""width:240px; margin: auto;"">
                                    <img src=""images/D24.png"" style= ""width:200px""alt=""img"">
                                </div>
                            </div>","1","","0","images/D24.png","","","","[""Blobby"",""Stripey""]"
"","","","","","html-slider-response","129","282269","0.0-123.0","hbnp44r1p0","NaN","<div style=""width:500px;"">
                                <p style=""font-size:50px; font-weight:bold;""
                                ></p>
                                <div style=""width:240px; margin: auto;"">
                                    <img src=""images/D65.png"" style= ""width:200px""alt=""img"">
                                </div>
                            </div>","200","","0","images/D65.png","","","","[""Blobby"",""Stripey""]"
"","","","","","html-slider-response","130","283677","0.0-124.0","hbnp44r1p0","NaN","<div style=""width:500px;"">
                                <p style=""font-size:50px; font-weight:bold;""
                                ></p>
                                <div style=""width:240px; margin: auto;"">
                                    <img src=""images/D16.png"" style= ""width:200px""alt=""img"">
                                </div>
                            </div>","200","","0","images/D16.png","","","","[""Blobby"",""Stripey""]"
"","","","","","html-slider-response","131","285112","0.0-125.0","hbnp44r1p0","NaN","<div style=""width:500px;"">
                                <p style=""font-size:50px; font-weight:bold;""
                                ></p>
                                <div style=""width:240px; margin: auto;"">
                                    <img src=""images/D105.png"" style= ""width:200px""alt=""img"">
                                </div>
                            </div>","200","","0","images/D105.png","","","","[""Blobby"",""Stripey""]"
"","","","","","html-slider-response","132","286607","0.0-126.0","hbnp44r1p0","NaN","<div style=""width:500px;"">
                                <p style=""font-size:50px; font-weight:bold;""
                                ></p>
                                <div style=""width:240px; margin: auto;"">
                                    <img src=""images/D79.png"" style= ""width:200px""alt=""img"">
                                </div>
                            </div>","200","","0","images/D79.png","","","","[""Blobby"",""Stripey""]"
"","","","","","html-slider-response","133","288070","0.0-127.0","hbnp44r1p0","NaN","<div style=""width:500px;"">
                                <p style=""font-size:50px; font-weight:bold;""
                                ></p>
                                <div style=""width:240px; margin: auto;"">
                                    <img src=""images/D3.png"" style= ""width:200px""alt=""img"">
                                </div>
                            </div>","-2","","0","images/D3.png","","","","[""Blobby"",""Stripey""]"
"","","","","","html-slider-response","134","291070","0.0-128.0","hbnp44r1p0","NaN","<div style=""width:500px;"">
                                <p style=""font-size:50px; font-weight:bold;""
                                ></p>
                                <div style=""width:240px; margin: auto;"">
                                    <img src=""images/D48.png"" style= ""width:200px""alt=""img"">
                                </div>
                            </div>","-30","","0","images/D48.png","","","","[""Blobby"",""Stripey""]"
"","","","","","html-slider-response","135","293569","0.0-129.0","hbnp44r1p0","NaN","<div style=""width:500px;"">
                                <p style=""font-size:50px; font-weight:bold;""
                                ></p>
                                <div style=""width:240px; margin: auto;"">
                                    <img src=""images/D81.png"" style= ""width:200px""alt=""img"">
                                </div>
                            </div>","-131","","0","images/D81.png","","","","[""Blobby"",""Stripey""]"
"","","","","","html-slider-response","136","295515","0.0-130.0","hbnp44r1p0","NaN","<div style=""width:500px;"">
                                <p style=""font-size:50px; font-weight:bold;""
                                ></p>
                                <div style=""width:240px; margin: auto;"">
                                    <img src=""images/D57.png"" style= ""width:200px""alt=""img"">
                                </div>
                            </div>","-133","","0","images/D57.png","","","","[""Blobby"",""Stripey""]"
"","","","","","html-slider-response","137","297147","0.0-131.0","hbnp44r1p0","NaN","<div style=""width:500px;"">
                                <p style=""font-size:50px; font-weight:bold;""
                                ></p>
                                <div style=""width:240px; margin: auto;"">
                                    <img src=""images/D1.png"" style= ""width:200px""alt=""img"">
                                </div>
                            </div>","200","","0","images/D1.png","","","","[""Blobby"",""Stripey""]"
"","","","","","html-slider-response","138","299247","0.0-132.0","hbnp44r1p0","NaN","<div style=""width:500px;"">
                                <p style=""font-size:50px; font-weight:bold;""
                                ></p>
                                <div style=""width:240px; margin: auto;"">
                                    <img src=""images/D36.png"" style= ""width:200px""alt=""img"">
                                </div>
                            </div>","-106","","0","images/D36.png","","","","[""Blobby"",""Stripey""]"
"","","","","","html-slider-response","139","301678","0.0-133.0","hbnp44r1p0","NaN","<div style=""width:500px;"">
                                <p style=""font-size:50px; font-weight:bold;""
                                ></p>
                                <div style=""width:240px; margin: auto;"">
                                    <img src=""images/D75.png"" style= ""width:200px""alt=""img"">
                                </div>
                            </div>","-86","","0","images/D75.png","","","","[""Blobby"",""Stripey""]"
"","","","","","html-slider-response","140","303747","0.0-134.0","hbnp44r1p0","NaN","<div style=""width:500px;"">
                                <p style=""font-size:50px; font-weight:bold;""
                                ></p>
                                <div style=""width:240px; margin: auto;"">
                                    <img src=""images/D29.png"" style= ""width:200px""alt=""img"">
                                </div>
                            </div>","-43","","0","images/D29.png","","","","[""Blobby"",""Stripey""]"
"","","","","","html-slider-response","141","305132","0.0-135.0","hbnp44r1p0","NaN","<div style=""width:500px;"">
                                <p style=""font-size:50px; font-weight:bold;""
                                ></p>
                                <div style=""width:240px; margin: auto;"">
                                    <img src=""images/D82.png"" style= ""width:200px""alt=""img"">
                                </div>
                            </div>","-42","","0","images/D82.png","","","","[""Blobby"",""Stripey""]"
"","","","","","html-slider-response","142","306328","0.0-136.0","hbnp44r1p0","NaN","<div style=""width:500px;"">
                                <p style=""font-size:50px; font-weight:bold;""
                                ></p>
                                <div style=""width:240px; margin: auto;"">
                                    <img src=""images/D74.png"" style= ""width:200px""alt=""img"">
                                </div>
                            </div>","-41","","0","images/D74.png","","","","[""Blobby"",""Stripey""]"
"","","","","","html-slider-response","143","307712","0.0-137.0","hbnp44r1p0","NaN","<div style=""width:500px;"">
                                <p style=""font-size:50px; font-weight:bold;""
                                ></p>
                                <div style=""width:240px; margin: auto;"">
                                    <img src=""images/D94.png"" style= ""width:200px""alt=""img"">
                                </div>
                            </div>","106","","0","images/D94.png","","","","[""Blobby"",""Stripey""]"
"","","","","","html-slider-response","144","309185","0.0-138.0","hbnp44r1p0","NaN","<div style=""width:500px;"">
                                <p style=""font-size:50px; font-weight:bold;""
                                ></p>
                                <div style=""width:240px; margin: auto;"">
                                    <img src=""images/D19.png"" style= ""width:200px""alt=""img"">
                                </div>
                            </div>","-59","","0","images/D19.png","","","","[""Blobby"",""Stripey""]"
"","","","","","html-slider-response","145","310561","0.0-139.0","hbnp44r1p0","NaN","<div style=""width:500px;"">
                                <p style=""font-size:50px; font-weight:bold;""
                                ></p>
                                <div style=""width:240px; margin: auto;"">
                                    <img src=""images/D6.png"" style= ""width:200px""alt=""img"">
                                </div>
                            </div>","79","","0","images/D6.png","","","","[""Blobby"",""Stripey""]"
"","","","","","html-button-response","146","313265","0.0-140.0","hbnp44r1p0","2202","You have completed the second block of trials out of six. Please click 'Continue' when you are ready proceed.","0","","","","","","",""
"","","","","","html-button-response","147","314194","0.0-141.0","hbnp44r1p0","929","In the following trials, you will be asked to rate textures on the scale <b>Random</b> versus <b>Non-Random</b>. Please click 'Continue' when you are ready proceed.","0","","","","","","",""
"","","","","","html-slider-response","148","318229","0.0-142.0","hbnp44r1p0","NaN","<div style=""width:500px;"">
                                <p style=""font-size:50px; font-weight:bold;""
                                ></p>
                                <div style=""width:240px; margin: auto;"">
                                    <img src=""images/D104.png"" style= ""width:200px""alt=""img"">
                                </div>
                            </div>","75","","0","images/D104.png","","","","[""Random"",""Non-random""]"
"","","","","","html-slider-response","149","319597","0.0-143.0","hbnp44r1p0","NaN","<div style=""width:500px;"">
                                <p style=""font-size:50px; font-weight:bold;""
                                ></p>
                                <div style=""width:240px; margin: auto;"">
                                    <img src=""images/D17.png"" style= ""width:200px""alt=""img"">
                                </div>
                            </div>","75","","0","images/D17.png","","","","[""Random"",""Non-random""]"
"","","","","","html-slider-response","150","322455","0.0-144.0","hbnp44r1p0","NaN","<div style=""width:500px;"">
                                <p style=""font-size:50px; font-weight:bold;""
                                ></p>
                                <div style=""width:240px; margin: auto;"">
                                    <img src=""images/D52.png"" style= ""width:200px""alt=""img"">
                                </div>
                            </div>","198","","0","images/D52.png","","","","[""Random"",""Non-random""]"
"","","","","","html-slider-response","151","324389","0.0-145.0","hbnp44r1p0","NaN","<div style=""width:500px;"">
                                <p style=""font-size:50px; font-weight:bold;""
                                ></p>
                                <div style=""width:240px; margin: auto;"">
                                    <img src=""images/D32.png"" style= ""width:200px""alt=""img"">
                                </div>
                            </div>","-187","","0","images/D32.png","","","","[""Random"",""Non-random""]"
"","","","","","html-slider-response","152","326931","0.0-146.0","hbnp44r1p0","NaN","<div style=""width:500px;"">
                                <p style=""font-size:50px; font-weight:bold;""
                                ></p>
                                <div style=""width:240px; margin: auto;"">
                                    <img src=""images/D14.png"" style= ""width:200px""alt=""img"">
                                </div>
                            </div>","166","","0","images/D14.png","","","","[""Random"",""Non-random""]"
"","","","","","html-slider-response","153","330174","0.0-147.0","hbnp44r1p0","NaN","<div style=""width:500px;"">
                                <p style=""font-size:50px; font-weight:bold;""
                                ></p>
                                <div style=""width:240px; margin: auto;"">
                                    <img src=""images/D51.png"" style= ""width:200px""alt=""img"">
                                </div>
                            </div>","46","","0","images/D51.png","","","","[""Random"",""Non-random""]"
"","","","","","html-slider-response","154","332921","0.0-148.0","hbnp44r1p0","NaN","<div style=""width:500px;"">
                                <p style=""font-size:50px; font-weight:bold;""
                                ></p>
                                <div style=""width:240px; margin: auto;"">
                                    <img src=""images/D11.png"" style= ""width:200px""alt=""img"">
                                </div>
                            </div>","189","","0","images/D11.png","","","","[""Random"",""Non-random""]"
"","","","","","html-slider-response","155","337690","0.0-149.0","hbnp44r1p0","NaN","<div style=""width:500px;"">
                                <p style=""font-size:50px; font-weight:bold;""
                                ></p>
                                <div style=""width:240px; margin: auto;"">
                                    <img src=""images/D106.png"" style= ""width:200px""alt=""img"">
                                </div>
                            </div>","28","","0","images/D106.png","","","","[""Random"",""Non-random""]"
"","","","","","html-slider-response","156","340185","0.0-150.0","hbnp44r1p0","NaN","<div style=""width:500px;"">
                                <p style=""font-size:50px; font-weight:bold;""
                                ></p>
                                <div style=""width:240px; margin: auto;"">
                                    <img src=""images/D80.png"" style= ""width:200px""alt=""img"">
                                </div>
                            </div>","176","","0","images/D80.png","","","","[""Random"",""Non-random""]"
"","","","","","html-slider-response","157","341514","0.0-151.0","hbnp44r1p0","NaN","<div style=""width:500px;"">
                                <p style=""font-size:50px; font-weight:bold;""
                                ></p>
                                <div style=""width:240px; margin: auto;"">
                                    <img src=""images/D83.png"" style= ""width:200px""alt=""img"">
                                </div>
                            </div>","130","","0","images/D83.png","","","","[""Random"",""Non-random""]"
"","","","","","html-slider-response","158","342733","0.0-152.0","hbnp44r1p0","NaN","<div style=""width:500px;"">
                                <p style=""font-size:50px; font-weight:bold;""
                                ></p>
                                <div style=""width:240px; margin: auto;"">
                                    <img src=""images/D20.png"" style= ""width:200px""alt=""img"">
                                </div>
                            </div>","142","","0","images/D20.png","","","","[""Random"",""Non-random""]"
"","","","","","html-slider-response","159","344032","0.0-153.0","hbnp44r1p0","NaN","<div style=""width:500px;"">
                                <p style=""font-size:50px; font-weight:bold;""
                                ></p>
                                <div style=""width:240px; margin: auto;"">
                                    <img src=""images/D49.png"" style= ""width:200px""alt=""img"">
                                </div>
                            </div>","142","","0","images/D49.png","","","","[""Random"",""Non-random""]"
"","","","","","html-slider-response","160","345418","0.0-154.0","hbnp44r1p0","NaN","<div style=""width:500px;"">
                                <p style=""font-size:50px; font-weight:bold;""
                                ></p>
                                <div style=""width:240px; margin: auto;"">
                                    <img src=""images/D102.png"" style= ""width:200px""alt=""img"">
                                </div>
                            </div>","187","","0","images/D102.png","","","","[""Random"",""Non-random""]"
"","","","","","html-slider-response","161","346937","0.0-155.0","hbnp44r1p0","NaN","<div style=""width:500px;"">
                                <p style=""font-size:50px; font-weight:bold;""
                                ></p>
                                <div style=""width:240px; margin: auto;"">
                                    <img src=""images/D76.png"" style= ""width:200px""alt=""img"">
                                </div>
                            </div>","190","","0","images/D76.png","","","","[""Random"",""Non-random""]"
"","","","","","html-slider-response","162","349691","0.0-156.0","hbnp44r1p0","NaN","<div style=""width:500px;"">
                                <p style=""font-size:50px; font-weight:bold;""
                                ></p>
                                <div style=""width:240px; margin: auto;"">
                                    <img src=""images/D35.png"" style= ""width:200px""alt=""img"">
                                </div>
                            </div>","159","","0","images/D35.png","","","","[""Random"",""Non-random""]"
"","","","","","html-slider-response","163","351202","0.0-157.0","hbnp44r1p0","NaN","<div style=""width:500px;"">
                                <p style=""font-size:50px; font-weight:bold;""
                                ></p>
                                <div style=""width:240px; margin: auto;"">
                                    <img src=""images/D37.png"" style= ""width:200px""alt=""img"">
                                </div>
                            </div>","186","","0","images/D37.png","","","","[""Random"",""Non-random""]"
"","","","","","html-slider-response","164","352382","0.0-158.0","hbnp44r1p0","NaN","<div style=""width:500px;"">
                                <p style=""font-size:50px; font-weight:bold;""
                                ></p>
                                <div style=""width:240px; margin: auto;"">
                                    <img src=""images/D101.png"" style= ""width:200px""alt=""img"">
                                </div>
                            </div>","186","","0","images/D101.png","","","","[""Random"",""Non-random""]"
"","","","","","html-slider-response","165","354246","0.0-159.0","hbnp44r1p0","NaN","<div style=""width:500px;"">
                                <p style=""font-size:50px; font-weight:bold;""
                                ></p>
                                <div style=""width:240px; margin: auto;"">
                                    <img src=""images/D55.png"" style= ""width:200px""alt=""img"">
                                </div>
                            </div>","197","","0","images/D55.png","","","","[""Random"",""Non-random""]"
"","","","","","html-slider-response","166","355466","0.0-160.0","hbnp44r1p0","NaN","<div style=""width:500px;"">
                                <p style=""font-size:50px; font-weight:bold;""
                                ></p>
                                <div style=""width:240px; margin: auto;"">
                                    <img src=""images/D84.png"" style= ""width:200px""alt=""img"">
                                </div>
                            </div>","197","","0","images/D84.png","","","","[""Random"",""Non-random""]"
"","","","","","html-slider-response","167","357897","0.0-161.0","hbnp44r1p0","NaN","<div style=""width:500px;"">
                                <p style=""font-size:50px; font-weight:bold;""
                                ></p>
                                <div style=""width:240px; margin: auto;"">
                                    <img src=""images/D34.png"" style= ""width:200px""alt=""img"">
                                </div>
                            </div>","154","","0","images/D34.png","","","","[""Random"",""Non-random""]"
"","","","","","html-slider-response","168","359545","0.0-162.0","hbnp44r1p0","NaN","<div style=""width:500px;"">
                                <p style=""font-size:50px; font-weight:bold;""
                                ></p>
                                <div style=""width:240px; margin: auto;"">
                                    <img src=""images/D78.png"" style= ""width:200px""alt=""img"">
                                </div>
                            </div>","193","","0","images/D78.png","","","","[""Random"",""Non-random""]"
"","","","","","html-slider-response","169","360890","0.0-163.0","hbnp44r1p0","NaN","<div style=""width:500px;"">
                                <p style=""font-size:50px; font-weight:bold;""
                                ></p>
                                <div style=""width:240px; margin: auto;"">
                                    <img src=""images/D47.png"" style= ""width:200px""alt=""img"">
                                </div>
                            </div>","193","","0","images/D47.png","","","","[""Random"",""Non-random""]"
"","","","","","html-slider-response","170","362118","0.0-164.0","hbnp44r1p0","NaN","<div style=""width:500px;"">
                                <p style=""font-size:50px; font-weight:bold;""
                                ></p>
                                <div style=""width:240px; margin: auto;"">
                                    <img src=""images/D26.png"" style= ""width:200px""alt=""img"">
                                </div>
                            </div>","193","","0","images/D26.png","","","","[""Random"",""Non-random""]"
"","","","","","html-slider-response","171","364361","0.0-165.0","hbnp44r1p0","NaN","<div style=""width:500px;"">
                                <p style=""font-size:50px; font-weight:bold;""
                                ></p>
                                <div style=""width:240px; margin: auto;"">
                                    <img src=""images/D87.png"" style= ""width:200px""alt=""img"">
                                </div>
                            </div>","101","","0","images/D87.png","","","","[""Random"",""Non-random""]"
"","","","","","html-slider-response","172","365902","0.0-166.0","hbnp44r1p0","NaN","<div style=""width:500px;"">
                                <p style=""font-size:50px; font-weight:bold;""
                                ></p>
                                <div style=""width:240px; margin: auto;"">
                                    <img src=""images/D95.png"" style= ""width:200px""alt=""img"">
                                </div>
                            </div>","196","","0","images/D95.png","","","","[""Random"",""Non-random""]"
"","","","","","html-slider-response","173","367141","0.0-167.0","hbnp44r1p0","NaN","<div style=""width:500px;"">
                                <p style=""font-size:50px; font-weight:bold;""
                                ></p>
                                <div style=""width:240px; margin: auto;"">
                                    <img src=""images/D56.png"" style= ""width:200px""alt=""img"">
                                </div>
                            </div>","197","","0","images/D56.png","","","","[""Random"",""Non-random""]"
"","","","","","html-slider-response","174","369680","0.0-168.0","hbnp44r1p0","NaN","<div style=""width:500px;"">
                                <p style=""font-size:50px; font-weight:bold;""
                                ></p>
                                <div style=""width:240px; margin: auto;"">
                                    <img src=""images/D77.png"" style= ""width:200px""alt=""img"">
                                </div>
                            </div>","197","","0","images/D77.png","","","","[""Random"",""Non-random""]"
"","","","","","html-slider-response","175","371199","0.0-169.0","hbnp44r1p0","NaN","<div style=""width:500px;"">
                                <p style=""font-size:50px; font-weight:bold;""
                                ></p>
                                <div style=""width:240px; margin: auto;"">
                                    <img src=""images/D68.png"" style= ""width:200px""alt=""img"">
                                </div>
                            </div>","197","","0","images/D68.png","","","","[""Random"",""Non-random""]"
"","","","","","html-slider-response","176","372522","0.0-170.0","hbnp44r1p0","NaN","<div style=""width:500px;"">
                                <p style=""font-size:50px; font-weight:bold;""
                                ></p>
                                <div style=""width:240px; margin: auto;"">
                                    <img src=""images/D111.png"" style= ""width:200px""alt=""img"">
                                </div>
                            </div>","197","","0","images/D111.png","","","","[""Random"",""Non-random""]"
"","","","","","html-slider-response","177","373757","0.0-171.0","hbnp44r1p0","NaN","<div style=""width:500px;"">
                                <p style=""font-size:50px; font-weight:bold;""
                                ></p>
                                <div style=""width:240px; margin: auto;"">
                                    <img src=""images/D96.png"" style= ""width:200px""alt=""img"">
                                </div>
                            </div>","197","","0","images/D96.png","","","","[""Random"",""Non-random""]"
"","","","","","html-slider-response","178","375049","0.0-172.0","hbnp44r1p0","NaN","<div style=""width:500px;"">
                                <p style=""font-size:50px; font-weight:bold;""
                                ></p>
                                <div style=""width:240px; margin: auto;"">
                                    <img src=""images/D18.png"" style= ""width:200px""alt=""img"">
                                </div>
                            </div>","197","","0","images/D18.png","","","","[""Random"",""Non-random""]"
"","","","","","html-slider-response","179","376198","0.0-173.0","hbnp44r1p0","NaN","<div style=""width:500px;"">
                                <p style=""font-size:50px; font-weight:bold;""
                                ></p>
                                <div style=""width:240px; margin: auto;"">
                                    <img src=""images/D4.png"" style= ""width:200px""alt=""img"">
                                </div>
                            </div>","196","","0","images/D4.png","","","","[""Random"",""Non-random""]"
"","","","","","html-slider-response","180","378188","0.0-174.0","hbnp44r1p0","NaN","<div style=""width:500px;"">
                                <p style=""font-size:50px; font-weight:bold;""
                                ></p>
                                <div style=""width:240px; margin: auto;"">
                                    <img src=""images/D9.png"" style= ""width:200px""alt=""img"">
                                </div>
                            </div>","198","","0","images/D9.png","","","","[""Random"",""Non-random""]"
"","","","","","html-slider-response","181","379368","0.0-175.0","hbnp44r1p0","NaN","<div style=""width:500px;"">
                                <p style=""font-size:50px; font-weight:bold;""
                                ></p>
                                <div style=""width:240px; margin: auto;"">
                                    <img src=""images/D25.png"" style= ""width:200px""alt=""img"">
                                </div>
                            </div>","198","","0","images/D25.png","","","","[""Random"",""Non-random""]"
"","","","","","html-slider-response","182","380628","0.0-176.0","hbnp44r1p0","NaN","<div style=""width:500px;"">
                                <p style=""font-size:50px; font-weight:bold;""
                                ></p>
                                <div style=""width:240px; margin: auto;"">
                                    <img src=""images/D64.png"" style= ""width:200px""alt=""img"">
                                </div>
                            </div>","198","","0","images/D64.png","","","","[""Random"",""Non-random""]"
"","","","","","html-slider-response","183","383022","0.0-177.0","hbnp44r1p0","NaN","<div style=""width:500px;"">
                                <p style=""font-size:50px; font-weight:bold;""
                                ></p>
                                <div style=""width:240px; margin: auto;"">
                                    <img src=""images/D46.png"" style= ""width:200px""alt=""img"">
                                </div>
                            </div>","197","","0","images/D46.png","","","","[""Random"",""Non-random""]"
"","","","","","html-slider-response","184","384792","0.0-178.0","hbnp44r1p0","NaN","<div style=""width:500px;"">
                                <p style=""font-size:50px; font-weight:bold;""
                                ></p>
                                <div style=""width:240px; margin: auto;"">
                                    <img src=""images/D85.png"" style= ""width:200px""alt=""img"">
                                </div>
                            </div>","197","","0","images/D85.png","","","","[""Random"",""Non-random""]"
"","","","","","html-slider-response","185","386625","0.0-179.0","hbnp44r1p0","NaN","<div style=""width:500px;"">
                                <p style=""font-size:50px; font-weight:bold;""
                                ></p>
                                <div style=""width:240px; margin: auto;"">
                                    <img src=""images/D66.png"" style= ""width:200px""alt=""img"">
                                </div>
                            </div>","197","","0","images/D66.png","","","","[""Random"",""Non-random""]"
"","","","","","html-slider-response","186","388121","0.0-180.0","hbnp44r1p0","NaN","<div style=""width:500px;"">
                                <p style=""font-size:50px; font-weight:bold;""
                                ></p>
                                <div style=""width:240px; margin: auto;"">
                                    <img src=""images/D53.png"" style= ""width:200px""alt=""img"">
                                </div>
                            </div>","197","","0","images/D53.png","","","","[""Random"",""Non-random""]"
