"success","timeout","failed_images","failed_audio","failed_video","trial_type","trial_index","time_elapsed","internal_node_id","subject_id","rt","stimulus","response","question_order","slider_start","image_path","practiceTrial","practiceTrialNum","correct","slider_labels"
"true","false","[]","[]","[]","preload","0","541","0.0-0.0","l2yh866dlq","","","","","","","","","",""
"","","","","","html-button-response","1","2446","0.0-1.0","l2yh866dlq","1902","<div style='text-align:center; font-size:20px; line-height:25px; width: 1200px;'>
                Welcome to our experiment! <br>
                <br>At the bottom of this screen, you will see a button that says 'Begin Experiment.
                <br>Please only click that button when you are ready to complete the 25 minute experiment in one sitting. <br>
                <br> Once you click that button, it will not be possible to restart the experiment. <br><br>","0","","","","","","",""
"true","","","","","fullscreen","2","4423","0.0-2.0","l2yh866dlq","970","","","","","","","","",""
"","","","","","survey-multi-select","3","8332","0.0-3.0","l2yh866dlq","3905","","{""Consent"":[""<strong>I consent</strong>""]}","[0]","","","","","",""
"","","","","","html-button-response","4","9489","0.0-4.0","l2yh866dlq","1155","Welcome! <p> This experiment involves two parts: demographic information, followed by the experimental task.<p> It will take about 25 minutes to complete both parts.","0","","","","","","",""
"","","","","","survey-text","5","15662","0.0-5.0","l2yh866dlq","6162","","{""Age"":""19"",""Gender"":""female"",""Race/ethnicity"":""white""}","","","","","","",""
"","","","","","html-slider-response","6","18325","0.0-6.0","l2yh866dlq","2659","
                <div style='text-align:center; height: auto; margin-left=-100px; margin-bottom: -20px; font-size:20px; line-height:5px; width: 1200px;'>
                    <br>During this experiment, you will see a series of textures, one at a time, like the ones below: 
                </div>
                    <br>
                    <br>
                    <img src=""anchoring_visual_textures.png"" alt=""img"" style=""max-width:1200px; margin-left: -10px;"">
                </div>
                <div style=""clear: both;""></div>
                </div>
                    <div style='text-align:center; margin-left=-100px; font-size:20px; line-height:20px; width: 1200px; margin-top: -50px;'>
                    
                    <br> For each texture, you will be asked to rate where you think it falls on each of the response scales with the following endpoints:
                    </div>
                            <div style=""text-align: center; width: 1400px; "">
                                <p style=""font-size:20px; line-height:5px; ""><b>Stripey</b> versus <b>Blobby</b></p>
                                <p style=""font-size:20px; line-height:5px; ""><b>Rectangular</b> versus <b>Rounded</b></p>
                                <p style=""font-size:20px;line-height:5px;""><b>Fine</b> versus <b>Coarse</b></p>
                                <p style=""font-size:20px;line-height:5px; ""><b>Smooth</b> versus <b>Rough</b></p>
                                <p style=""font-size:20px;line-height:5px; ""><b>Non-Random</b> versus <b>Random</b></p>
                                <p style=""font-size:20px;line-height:5px;""><b>Soft</b> versus <b>Hard</b></p>
                            </div>
                            <div style='text-align:center; font-size:20px; line-height:20px; width: 1400px;'>
                    
                    Each trial will include one texture and one response scale. You will be asked to make your rating by sliding the cursor along a slider response scale like the one below.
                    <br><br> Before beginning, please look at the textures and scales. For each scale, think about the texture you associate most with the left endpoint. When you see that texture for that response scale, please click near the left of the scale.
                    <br><br> Now, please think about the texture you associate most with the right endpoint of each scale. When you see that texture for that response scale, please click near the right of the scale. 
                    <br><br> If you think a texture is not strongly associated with either endpoint of the scale, please click near the midpoint of the scale. Please use the full range of the scale. 
                    <br><br> You will be asked to rate each texture for a given scale before moving on to the next scale.
                    <br><br> Please press the 'Continue' button for instructions on how to use the slider.                     <br><br>
                ","null","","0","visual_textures_anchoring.png","true","","",""
"","","","","","html-button-response","7","19633","0.0-7.0","l2yh866dlq","1307","<div style=""width:1200px; margin-top:-150px;""><p style=""text-align:center; font-size:24px;"">To move the slider, click and drag your cursor to the location of the scale where you would like to make your rating and then let go. <br><br> When you let go of the slider, your response will be recorded and the next trial will begin. <br><br><br>
                We are interested in your initial impressions of each texture and scale, so please go with your first intuition. <br><br>
                Before you begin the experiment, there will be four training trials for you to practice using the scale. <br><br><br><br></div>
                <div style=""width:1200px;""><p style=""text-align:center; font-size:20px;"">When you are ready to start the training trials, please click ""Continue"".</p></div>","0","","","","","","",""
"","","","","","html-slider-response","8","23758","0.0-8.0-0.0","l2yh866dlq","NaN","<div style=""width:500px;"">
                                <p style=""font-size:25px;"">Please move the slider all the way to the <br> right endpoint of the scale</p>

                                </div>
                            </div>","200","","0","","true","0","true",""
"","","","","","html-button-response","9","25054","0.0-8.0-1.0","l2yh866dlq","794","<p align='center'><b>Good job!</b> Click on 'Continue' to proceed.</p>","0","","","","","","",""
"","","","","","html-slider-response","10","26457","0.0-9.0-0.0","l2yh866dlq","NaN","<div style=""width:500px;"">
                                <p style=""font-size:25px;"">Please move the slider all the way to the <br> left endpoint of the scale</p>

                                </div>
                            </div>","-200","","0","","true","1","true",""
"","","","","","html-button-response","11","28278","0.0-9.0-1.0","l2yh866dlq","1319","<p align='center'><b>Good job!</b> Click on 'Continue' to proceed.</p>","0","","","","","","",""
"","","","","","html-slider-response","12","34197","0.0-10.0-0.0","l2yh866dlq","NaN","<div style=""width:500px;"">
                                <p style=""font-size:25px;"">Please move the slider halfway between the center and right endpoint of the scale</p>

                                </div>
                            </div>","96","","0","","true","2","true",""
"","","","","","html-button-response","13","35631","0.0-10.0-1.0","l2yh866dlq","932","<p align='center'><b>Good job!</b> Click on 'Continue' to proceed.</p>","0","","","","","","",""
"","","","","","html-slider-response","14","38211","0.0-11.0-0.0","l2yh866dlq","NaN","<div style=""width:500px;"">
                                <p style=""font-size:25px;"">Please move the slider halfway between the center and left endpoint of the scale</p>

                                </div>
                            </div>","-105","","0","","true","3","true",""
"","","","","","html-button-response","15","39409","0.0-11.0-1.0","l2yh866dlq","696","<p align='center'><b>Good job!</b> Click on 'Continue' to proceed.</p>","0","","","","","","",""
"","","","","","html-button-response","16","40558","0.0-12.0","l2yh866dlq","1148","<div style=""width:800px; margin-top:-300px;""><p style=""text-align:center; font-size:22px; line-height:25px;""""> Great job! You've completed the practice trials.</div>
                     <div style=""width:800px; margin-top:-20px;""><p style=""text-align:center""><br><br> In the following trials, you will be asked to rate textures on each scale one-by-one. <br> You will be given opportunities to take breaks when you have completed each block of trials. There are six total blocks of trials. <br><br> Please click continue to begin the main task.<br><br><br> </div>","0","","","","","","",""
"","","","","","html-button-response","17","41469","0.0-13.0","l2yh866dlq","910","In the following trials, you will be asked to rate textures on the scale <b>Stripey</b> versus <b>Blobby</b>. Please click 'Continue' when you are ready proceed.","0","","","","","","",""
"","","","","","html-slider-response","18","44120","0.0-14.0","l2yh866dlq","NaN","<div style=""width:500px;"">
                                <p style=""font-size:50px; font-weight:bold;""
                                ></p>
                                <div style=""width:240px; margin: auto;"">
                                    <img src=""images/D11.png"" style= ""width:200px""alt=""img"">
                                </div>
                            </div>","-200","","0","images/D11.png","","","","[""Stripey"",""Blobby""]"
"","","","","","html-slider-response","19","47495","0.0-15.0","l2yh866dlq","NaN","<div style=""width:500px;"">
                                <p style=""font-size:50px; font-weight:bold;""
                                ></p>
                                <div style=""width:240px; margin: auto;"">
                                    <img src=""images/D19.png"" style= ""width:200px""alt=""img"">
                                </div>
                            </div>","200","","0","images/D19.png","","","","[""Stripey"",""Blobby""]"
"","","","","","html-slider-response","20","50408","0.0-16.0","l2yh866dlq","NaN","<div style=""width:500px;"">
                                <p style=""font-size:50px; font-weight:bold;""
                                ></p>
                                <div style=""width:240px; margin: auto;"">
                                    <img src=""images/D65.png"" style= ""width:200px""alt=""img"">
                                </div>
                            </div>","-120","","0","images/D65.png","","","","[""Stripey"",""Blobby""]"
"","","","","","html-slider-response","21","56277","0.0-17.0","l2yh866dlq","NaN","<div style=""width:500px;"">
                                <p style=""font-size:50px; font-weight:bold;""
                                ></p>
                                <div style=""width:240px; margin: auto;"">
                                    <img src=""images/D53.png"" style= ""width:200px""alt=""img"">
                                </div>
                            </div>","5","","0","images/D53.png","","","","[""Stripey"",""Blobby""]"
"","","","","","html-slider-response","22","58672","0.0-18.0","l2yh866dlq","NaN","<div style=""width:500px;"">
                                <p style=""font-size:50px; font-weight:bold;""
                                ></p>
                                <div style=""width:240px; margin: auto;"">
                                    <img src=""images/D92.png"" style= ""width:200px""alt=""img"">
                                </div>
                            </div>","200","","0","images/D92.png","","","","[""Stripey"",""Blobby""]"
"","","","","","html-slider-response","23","62951","0.0-19.0","l2yh866dlq","NaN","<div style=""width:500px;"">
                                <p style=""font-size:50px; font-weight:bold;""
                                ></p>
                                <div style=""width:240px; margin: auto;"">
                                    <img src=""images/D1.png"" style= ""width:200px""alt=""img"">
                                </div>
                            </div>","-159","","0","images/D1.png","","","","[""Stripey"",""Blobby""]"
"","","","","","html-slider-response","24","66197","0.0-20.0","l2yh866dlq","NaN","<div style=""width:500px;"">
                                <p style=""font-size:50px; font-weight:bold;""
                                ></p>
                                <div style=""width:240px; margin: auto;"">
                                    <img src=""images/D16.png"" style= ""width:200px""alt=""img"">
                                </div>
                            </div>","-104","","0","images/D16.png","","","","[""Stripey"",""Blobby""]"
"","","","","","html-slider-response","25","71058","0.0-21.0","l2yh866dlq","NaN","<div style=""width:500px;"">
                                <p style=""font-size:50px; font-weight:bold;""
                                ></p>
                                <div style=""width:240px; margin: auto;"">
                                    <img src=""images/D21.png"" style= ""width:200px""alt=""img"">
                                </div>
                            </div>","-2","","0","images/D21.png","","","","[""Stripey"",""Blobby""]"
"","","","","","html-slider-response","26","73937","0.0-22.0","l2yh866dlq","NaN","<div style=""width:500px;"">
                                <p style=""font-size:50px; font-weight:bold;""
                                ></p>
                                <div style=""width:240px; margin: auto;"">
                                    <img src=""images/D94.png"" style= ""width:200px""alt=""img"">
                                </div>
                            </div>","-113","","0","images/D94.png","","","","[""Stripey"",""Blobby""]"
"","","","","","html-slider-response","27","76496","0.0-23.0","l2yh866dlq","NaN","<div style=""width:500px;"">
                                <p style=""font-size:50px; font-weight:bold;""
                                ></p>
                                <div style=""width:240px; margin: auto;"">
                                    <img src=""images/D47.png"" style= ""width:200px""alt=""img"">
                                </div>
                            </div>","-2","","0","images/D47.png","","","","[""Stripey"",""Blobby""]"
"","","","","","html-slider-response","28","78101","0.0-24.0","l2yh866dlq","NaN","<div style=""width:500px;"">
                                <p style=""font-size:50px; font-weight:bold;""
                                ></p>
                                <div style=""width:240px; margin: auto;"">
                                    <img src=""images/D106.png"" style= ""width:200px""alt=""img"">
                                </div>
                            </div>","-200","","0","images/D106.png","","","","[""Stripey"",""Blobby""]"
"","","","","","html-slider-response","29","80351","0.0-25.0","l2yh866dlq","NaN","<div style=""width:500px;"">
                                <p style=""font-size:50px; font-weight:bold;""
                                ></p>
                                <div style=""width:240px; margin: auto;"">
                                    <img src=""images/D85.png"" style= ""width:200px""alt=""img"">
                                </div>
                            </div>","-117","","0","images/D85.png","","","","[""Stripey"",""Blobby""]"
"","","","","","html-slider-response","30","83749","0.0-26.0","l2yh866dlq","NaN","<div style=""width:500px;"">
                                <p style=""font-size:50px; font-weight:bold;""
                                ></p>
                                <div style=""width:240px; margin: auto;"">
                                    <img src=""images/D49.png"" style= ""width:200px""alt=""img"">
                                </div>
                            </div>","-106","","0","images/D49.png","","","","[""Stripey"",""Blobby""]"
"","","","","","html-slider-response","31","85641","0.0-27.0","l2yh866dlq","NaN","<div style=""width:500px;"">
                                <p style=""font-size:50px; font-weight:bold;""
                                ></p>
                                <div style=""width:240px; margin: auto;"">
                                    <img src=""images/D95.png"" style= ""width:200px""alt=""img"">
                                </div>
                            </div>","-3","","0","images/D95.png","","","","[""Stripey"",""Blobby""]"
"","","","","","html-slider-response","32","88817","0.0-28.0","l2yh866dlq","NaN","<div style=""width:500px;"">
                                <p style=""font-size:50px; font-weight:bold;""
                                ></p>
                                <div style=""width:240px; margin: auto;"">
                                    <img src=""images/D101.png"" style= ""width:200px""alt=""img"">
                                </div>
                            </div>","89","","0","images/D101.png","","","","[""Stripey"",""Blobby""]"
"","","","","","html-slider-response","33","93021","0.0-29.0","l2yh866dlq","NaN","<div style=""width:500px;"">
                                <p style=""font-size:50px; font-weight:bold;""
                                ></p>
                                <div style=""width:240px; margin: auto;"">
                                    <img src=""images/D25.png"" style= ""width:200px""alt=""img"">
                                </div>
                            </div>","0","","0","images/D25.png","","","","[""Stripey"",""Blobby""]"
"","","","","","html-slider-response","34","95486","0.0-30.0","l2yh866dlq","NaN","<div style=""width:500px;"">
                                <p style=""font-size:50px; font-weight:bold;""
                                ></p>
                                <div style=""width:240px; margin: auto;"">
                                    <img src=""images/D84.png"" style= ""width:200px""alt=""img"">
                                </div>
                            </div>","200","","0","images/D84.png","","","","[""Stripey"",""Blobby""]"
"","","","","","html-slider-response","35","98884","0.0-31.0","l2yh866dlq","NaN","<div style=""width:500px;"">
                                <p style=""font-size:50px; font-weight:bold;""
                                ></p>
                                <div style=""width:240px; margin: auto;"">
                                    <img src=""images/D64.png"" style= ""width:200px""alt=""img"">
                                </div>
                            </div>","0","","0","images/D64.png","","","","[""Stripey"",""Blobby""]"
"","","","","","html-slider-response","36","100569","0.0-32.0","l2yh866dlq","NaN","<div style=""width:500px;"">
                                <p style=""font-size:50px; font-weight:bold;""
                                ></p>
                                <div style=""width:240px; margin: auto;"">
                                    <img src=""images/D6.png"" style= ""width:200px""alt=""img"">
                                </div>
                            </div>","200","","0","images/D6.png","","","","[""Stripey"",""Blobby""]"
"","","","","","html-slider-response","37","102278","0.0-33.0","l2yh866dlq","NaN","<div style=""width:500px;"">
                                <p style=""font-size:50px; font-weight:bold;""
                                ></p>
                                <div style=""width:240px; margin: auto;"">
                                    <img src=""images/D24.png"" style= ""width:200px""alt=""img"">
                                </div>
                            </div>","200","","0","images/D24.png","","","","[""Stripey"",""Blobby""]"
"","","","","","html-slider-response","38","104044","0.0-34.0","l2yh866dlq","NaN","<div style=""width:500px;"">
                                <p style=""font-size:50px; font-weight:bold;""
                                ></p>
                                <div style=""width:240px; margin: auto;"">
                                    <img src=""images/D111.png"" style= ""width:200px""alt=""img"">
                                </div>
                            </div>","200","","0","images/D111.png","","","","[""Stripey"",""Blobby""]"
"","","","","","html-slider-response","39","105795","0.0-35.0","l2yh866dlq","NaN","<div style=""width:500px;"">
                                <p style=""font-size:50px; font-weight:bold;""
                                ></p>
                                <div style=""width:240px; margin: auto;"">
                                    <img src=""images/D29.png"" style= ""width:200px""alt=""img"">
                                </div>
                            </div>","200","","0","images/D29.png","","","","[""Stripey"",""Blobby""]"
"","","","","","html-slider-response","40","108021","0.0-36.0","l2yh866dlq","NaN","<div style=""width:500px;"">
                                <p style=""font-size:50px; font-weight:bold;""
                                ></p>
                                <div style=""width:240px; margin: auto;"">
                                    <img src=""images/D20.png"" style= ""width:200px""alt=""img"">
                                </div>
                            </div>","-108","","0","images/D20.png","","","","[""Stripey"",""Blobby""]"
"","","","","","html-slider-response","41","110968","0.0-37.0","l2yh866dlq","NaN","<div style=""width:500px;"">
                                <p style=""font-size:50px; font-weight:bold;""
                                ></p>
                                <div style=""width:240px; margin: auto;"">
                                    <img src=""images/D80.png"" style= ""width:200px""alt=""img"">
                                </div>
                            </div>","-104","","0","images/D80.png","","","","[""Stripey"",""Blobby""]"
"","","","","","html-slider-response","42","113660","0.0-38.0","l2yh866dlq","NaN","<div style=""width:500px;"">
                                <p style=""font-size:50px; font-weight:bold;""
                                ></p>
                                <div style=""width:240px; margin: auto;"">
                                    <img src=""images/D26.png"" style= ""width:200px""alt=""img"">
                                </div>
                            </div>","-95","","0","images/D26.png","","","","[""Stripey"",""Blobby""]"
"","","","","","html-slider-response","43","115556","0.0-39.0","l2yh866dlq","NaN","<div style=""width:500px;"">
                                <p style=""font-size:50px; font-weight:bold;""
                                ></p>
                                <div style=""width:240px; margin: auto;"">
                                    <img src=""images/D9.png"" style= ""width:200px""alt=""img"">
                                </div>
                            </div>","200","","0","images/D9.png","","","","[""Stripey"",""Blobby""]"
"","","","","","html-slider-response","44","117812","0.0-40.0","l2yh866dlq","NaN","<div style=""width:500px;"">
                                <p style=""font-size:50px; font-weight:bold;""
                                ></p>
                                <div style=""width:240px; margin: auto;"">
                                    <img src=""images/D87.png"" style= ""width:200px""alt=""img"">
                                </div>
                            </div>","158","","0","images/D87.png","","","","[""Stripey"",""Blobby""]"
"","","","","","html-slider-response","45","120347","0.0-41.0","l2yh866dlq","NaN","<div style=""width:500px;"">
                                <p style=""font-size:50px; font-weight:bold;""
                                ></p>
                                <div style=""width:240px; margin: auto;"">
                                    <img src=""images/D8.png"" style= ""width:200px""alt=""img"">
                                </div>
                            </div>","98","","0","images/D8.png","","","","[""Stripey"",""Blobby""]"
"","","","","","html-slider-response","46","122389","0.0-42.0","l2yh866dlq","NaN","<div style=""width:500px;"">
                                <p style=""font-size:50px; font-weight:bold;""
                                ></p>
                                <div style=""width:240px; margin: auto;"">
                                    <img src=""images/D51.png"" style= ""width:200px""alt=""img"">
                                </div>
                            </div>","-200","","0","images/D51.png","","","","[""Stripey"",""Blobby""]"
"","","","","","html-slider-response","47","124502","0.0-43.0","l2yh866dlq","NaN","<div style=""width:500px;"">
                                <p style=""font-size:50px; font-weight:bold;""
                                ></p>
                                <div style=""width:240px; margin: auto;"">
                                    <img src=""images/D78.png"" style= ""width:200px""alt=""img"">
                                </div>
                            </div>","-110","","0","images/D78.png","","","","[""Stripey"",""Blobby""]"
"","","","","","html-slider-response","48","126585","0.0-44.0","l2yh866dlq","NaN","<div style=""width:500px;"">
                                <p style=""font-size:50px; font-weight:bold;""
                                ></p>
                                <div style=""width:240px; margin: auto;"">
                                    <img src=""images/D74.png"" style= ""width:200px""alt=""img"">
                                </div>
                            </div>","200","","0","images/D74.png","","","","[""Stripey"",""Blobby""]"
"","","","","","html-slider-response","49","128629","0.0-45.0","l2yh866dlq","NaN","<div style=""width:500px;"">
                                <p style=""font-size:50px; font-weight:bold;""
                                ></p>
                                <div style=""width:240px; margin: auto;"">
                                    <img src=""images/D83.png"" style= ""width:200px""alt=""img"">
                                </div>
                            </div>","-113","","0","images/D83.png","","","","[""Stripey"",""Blobby""]"
"","","","","","html-slider-response","50","130306","0.0-46.0","l2yh866dlq","NaN","<div style=""width:500px;"">
                                <p style=""font-size:50px; font-weight:bold;""
                                ></p>
                                <div style=""width:240px; margin: auto;"">
                                    <img src=""images/D77.png"" style= ""width:200px""alt=""img"">
                                </div>
                            </div>","200","","0","images/D77.png","","","","[""Stripey"",""Blobby""]"
"","","","","","html-slider-response","51","133206","0.0-47.0","l2yh866dlq","NaN","<div style=""width:500px;"">
                                <p style=""font-size:50px; font-weight:bold;""
                                ></p>
                                <div style=""width:240px; margin: auto;"">
                                    <img src=""images/D35.png"" style= ""width:200px""alt=""img"">
                                </div>
                            </div>","62","","0","images/D35.png","","","","[""Stripey"",""Blobby""]"
"","","","","","html-slider-response","52","135206","0.0-48.0","l2yh866dlq","NaN","<div style=""width:500px;"">
                                <p style=""font-size:50px; font-weight:bold;""
                                ></p>
                                <div style=""width:240px; margin: auto;"">
                                    <img src=""images/D104.png"" style= ""width:200px""alt=""img"">
                                </div>
                            </div>","200","","0","images/D104.png","","","","[""Stripey"",""Blobby""]"
"","","","","","html-slider-response","53","137495","0.0-49.0","l2yh866dlq","NaN","<div style=""width:500px;"">
                                <p style=""font-size:50px; font-weight:bold;""
                                ></p>
                                <div style=""width:240px; margin: auto;"">
                                    <img src=""images/D48.png"" style= ""width:200px""alt=""img"">
                                </div>
                            </div>","99","","0","images/D48.png","","","","[""Stripey"",""Blobby""]"
"","","","","","html-slider-response","54","140164","0.0-50.0","l2yh866dlq","NaN","<div style=""width:500px;"">
                                <p style=""font-size:50px; font-weight:bold;""
                                ></p>
                                <div style=""width:240px; margin: auto;"">
                                    <img src=""images/D37.png"" style= ""width:200px""alt=""img"">
                                </div>
                            </div>","-86","","0","images/D37.png","","","","[""Stripey"",""Blobby""]"
"","","","","","html-slider-response","55","142078","0.0-51.0","l2yh866dlq","NaN","<div style=""width:500px;"">
                                <p style=""font-size:50px; font-weight:bold;""
                                ></p>
                                <div style=""width:240px; margin: auto;"">
                                    <img src=""images/D76.png"" style= ""width:200px""alt=""img"">
                                </div>
                            </div>","-101","","0","images/D76.png","","","","[""Stripey"",""Blobby""]"
"","","","","","html-slider-response","56","145365","0.0-52.0","l2yh866dlq","NaN","<div style=""width:500px;"">
                                <p style=""font-size:50px; font-weight:bold;""
                                ></p>
                                <div style=""width:240px; margin: auto;"">
                                    <img src=""images/D102.png"" style= ""width:200px""alt=""img"">
                                </div>
                            </div>","-105","","0","images/D102.png","","","","[""Stripey"",""Blobby""]"
"","","","","","html-slider-response","57","148051","0.0-53.0","l2yh866dlq","NaN","<div style=""width:500px;"">
                                <p style=""font-size:50px; font-weight:bold;""
                                ></p>
                                <div style=""width:240px; margin: auto;"">
                                    <img src=""images/D68.png"" style= ""width:200px""alt=""img"">
                                </div>
                            </div>","-1","","0","images/D68.png","","","","[""Stripey"",""Blobby""]"
"","","","","","html-slider-response","58","149978","0.0-54.0","l2yh866dlq","NaN","<div style=""width:500px;"">
                                <p style=""font-size:50px; font-weight:bold;""
                                ></p>
                                <div style=""width:240px; margin: auto;"">
                                    <img src=""images/D75.png"" style= ""width:200px""alt=""img"">
                                </div>
                            </div>","200","","0","images/D75.png","","","","[""Stripey"",""Blobby""]"
"","","","","","html-slider-response","59","152143","0.0-55.0","l2yh866dlq","NaN","<div style=""width:500px;"">
                                <p style=""font-size:50px; font-weight:bold;""
                                ></p>
                                <div style=""width:240px; margin: auto;"">
                                    <img src=""images/D14.png"" style= ""width:200px""alt=""img"">
                                </div>
                            </div>","-4","","0","images/D14.png","","","","[""Stripey"",""Blobby""]"
"","","","","","html-slider-response","60","154904","0.0-56.0","l2yh866dlq","NaN","<div style=""width:500px;"">
                                <p style=""font-size:50px; font-weight:bold;""
                                ></p>
                                <div style=""width:240px; margin: auto;"">
                                    <img src=""images/D56.png"" style= ""width:200px""alt=""img"">
                                </div>
                            </div>","-101","","0","images/D56.png","","","","[""Stripey"",""Blobby""]"
"","","","","","html-slider-response","61","157780","0.0-57.0","l2yh866dlq","NaN","<div style=""width:500px;"">
                                <p style=""font-size:50px; font-weight:bold;""
                                ></p>
                                <div style=""width:240px; margin: auto;"">
                                    <img src=""images/D36.png"" style= ""width:200px""alt=""img"">
                                </div>
                            </div>","23","","0","images/D36.png","","","","[""Stripey"",""Blobby""]"
"","","","","","html-slider-response","62","160859","0.0-58.0","l2yh866dlq","NaN","<div style=""width:500px;"">
                                <p style=""font-size:50px; font-weight:bold;""
                                ></p>
                                <div style=""width:240px; margin: auto;"">
                                    <img src=""images/D17.png"" style= ""width:200px""alt=""img"">
                                </div>
                            </div>","4","","0","images/D17.png","","","","[""Stripey"",""Blobby""]"
"","","","","","html-slider-response","63","162167","0.0-59.0","l2yh866dlq","NaN","<div style=""width:500px;"">
                                <p style=""font-size:50px; font-weight:bold;""
                                ></p>
                                <div style=""width:240px; margin: auto;"">
                                    <img src=""images/D52.png"" style= ""width:200px""alt=""img"">
                                </div>
                            </div>","-3","","0","images/D52.png","","","","[""Stripey"",""Blobby""]"
"","","","","","html-slider-response","64","164366","0.0-60.0","l2yh866dlq","NaN","<div style=""width:500px;"">
                                <p style=""font-size:50px; font-weight:bold;""
                                ></p>
                                <div style=""width:240px; margin: auto;"">
                                    <img src=""images/D96.png"" style= ""width:200px""alt=""img"">
                                </div>
                            </div>","-92","","0","images/D96.png","","","","[""Stripey"",""Blobby""]"
"","","","","","html-slider-response","65","166804","0.0-61.0","l2yh866dlq","NaN","<div style=""width:500px;"">
                                <p style=""font-size:50px; font-weight:bold;""
                                ></p>
                                <div style=""width:240px; margin: auto;"">
                                    <img src=""images/D3.png"" style= ""width:200px""alt=""img"">
                                </div>
                            </div>","94","","0","images/D3.png","","","","[""Stripey"",""Blobby""]"
"","","","","","html-slider-response","66","168386","0.0-62.0","l2yh866dlq","NaN","<div style=""width:500px;"">
                                <p style=""font-size:50px; font-weight:bold;""
                                ></p>
                                <div style=""width:240px; margin: auto;"">
                                    <img src=""images/D4.png"" style= ""width:200px""alt=""img"">
                                </div>
                            </div>","192","","0","images/D4.png","","","","[""Stripey"",""Blobby""]"
"","","","","","html-slider-response","67","170919","0.0-63.0","l2yh866dlq","NaN","<div style=""width:500px;"">
                                <p style=""font-size:50px; font-weight:bold;""
                                ></p>
                                <div style=""width:240px; margin: auto;"">
                                    <img src=""images/D82.png"" style= ""width:200px""alt=""img"">
                                </div>
                            </div>","61","","0","images/D82.png","","","","[""Stripey"",""Blobby""]"
"","","","","","html-slider-response","68","172393","0.0-64.0","l2yh866dlq","NaN","<div style=""width:500px;"">
                                <p style=""font-size:50px; font-weight:bold;""
                                ></p>
                                <div style=""width:240px; margin: auto;"">
                                    <img src=""images/D57.png"" style= ""width:200px""alt=""img"">
                                </div>
                            </div>","200","","0","images/D57.png","","","","[""Stripey"",""Blobby""]"
"","","","","","html-slider-response","69","174253","0.0-65.0","l2yh866dlq","NaN","<div style=""width:500px;"">
                                <p style=""font-size:50px; font-weight:bold;""
                                ></p>
                                <div style=""width:240px; margin: auto;"">
                                    <img src=""images/D22.png"" style= ""width:200px""alt=""img"">
                                </div>
                            </div>","24","","0","images/D22.png","","","","[""Stripey"",""Blobby""]"
"","","","","","html-slider-response","70","176168","0.0-66.0","l2yh866dlq","NaN","<div style=""width:500px;"">
                                <p style=""font-size:50px; font-weight:bold;""
                                ></p>
                                <div style=""width:240px; margin: auto;"">
                                    <img src=""images/D103.png"" style= ""width:200px""alt=""img"">
                                </div>
                            </div>","200","","0","images/D103.png","","","","[""Stripey"",""Blobby""]"
"","","","","","html-slider-response","71","179051","0.0-67.0","l2yh866dlq","NaN","<div style=""width:500px;"">
                                <p style=""font-size:50px; font-weight:bold;""
                                ></p>
                                <div style=""width:240px; margin: auto;"">
                                    <img src=""images/D55.png"" style= ""width:200px""alt=""img"">
                                </div>
                            </div>","-100","","0","images/D55.png","","","","[""Stripey"",""Blobby""]"
"","","","","","html-slider-response","72","180888","0.0-68.0","l2yh866dlq","NaN","<div style=""width:500px;"">
                                <p style=""font-size:50px; font-weight:bold;""
                                ></p>
                                <div style=""width:240px; margin: auto;"">
                                    <img src=""images/D79.png"" style= ""width:200px""alt=""img"">
                                </div>
                            </div>","-108","","0","images/D79.png","","","","[""Stripey"",""Blobby""]"
"","","","","","html-slider-response","73","182676","0.0-69.0","l2yh866dlq","NaN","<div style=""width:500px;"">
                                <p style=""font-size:50px; font-weight:bold;""
                                ></p>
                                <div style=""width:240px; margin: auto;"">
                                    <img src=""images/D32.png"" style= ""width:200px""alt=""img"">
                                </div>
                            </div>","200","","0","images/D32.png","","","","[""Stripey"",""Blobby""]"
"","","","","","html-slider-response","74","184824","0.0-70.0","l2yh866dlq","NaN","<div style=""width:500px;"">
                                <p style=""font-size:50px; font-weight:bold;""
                                ></p>
                                <div style=""width:240px; margin: auto;"">
                                    <img src=""images/D81.png"" style= ""width:200px""alt=""img"">
                                </div>
                            </div>","96","","0","images/D81.png","","","","[""Stripey"",""Blobby""]"
"","","","","","html-slider-response","75","186538","0.0-71.0","l2yh866dlq","NaN","<div style=""width:500px;"">
                                <p style=""font-size:50px; font-weight:bold;""
                                ></p>
                                <div style=""width:240px; margin: auto;"">
                                    <img src=""images/D105.png"" style= ""width:200px""alt=""img"">
                                </div>
                            </div>","-198","","0","images/D105.png","","","","[""Stripey"",""Blobby""]"
"","","","","","html-slider-response","76","188430","0.0-72.0","l2yh866dlq","NaN","<div style=""width:500px;"">
                                <p style=""font-size:50px; font-weight:bold;""
                                ></p>
                                <div style=""width:240px; margin: auto;"">
                                    <img src=""images/D66.png"" style= ""width:200px""alt=""img"">
                                </div>
                            </div>","200","","0","images/D66.png","","","","[""Stripey"",""Blobby""]"
"","","","","","html-slider-response","77","192677","0.0-73.0","l2yh866dlq","NaN","<div style=""width:500px;"">
                                <p style=""font-size:50px; font-weight:bold;""
                                ></p>
                                <div style=""width:240px; margin: auto;"">
                                    <img src=""images/D46.png"" style= ""width:200px""alt=""img"">
                                </div>
                            </div>","-118","","0","images/D46.png","","","","[""Stripey"",""Blobby""]"
"","","","","","html-slider-response","78","194560","0.0-74.0","l2yh866dlq","NaN","<div style=""width:500px;"">
                                <p style=""font-size:50px; font-weight:bold;""
                                ></p>
                                <div style=""width:240px; margin: auto;"">
                                    <img src=""images/D34.png"" style= ""width:200px""alt=""img"">
                                </div>
                            </div>","200","","0","images/D34.png","","","","[""Stripey"",""Blobby""]"
"","","","","","html-slider-response","79","196494","0.0-75.0","l2yh866dlq","NaN","<div style=""width:500px;"">
                                <p style=""font-size:50px; font-weight:bold;""
                                ></p>
                                <div style=""width:240px; margin: auto;"">
                                    <img src=""images/D18.png"" style= ""width:200px""alt=""img"">
                                </div>
                            </div>","118","","0","images/D18.png","","","","[""Stripey"",""Blobby""]"
"","","","","","html-button-response","80","199838","0.0-76.0","l2yh866dlq","2843","You have completed the first block of trials out of six. Please click 'Continue' when you are ready proceed.","0","","","","","","",""
"","","","","","html-button-response","81","201351","0.0-77.0","l2yh866dlq","1512","In the following trials, you will be asked to rate textures on the scale <b>Soft</b> versus <b>Hard</b>. Please click 'Continue' when you are ready proceed.","0","","","","","","",""
"","","","","","html-slider-response","82","203380","0.0-78.0","l2yh866dlq","NaN","<div style=""width:500px;"">
                                <p style=""font-size:50px; font-weight:bold;""
                                ></p>
                                <div style=""width:240px; margin: auto;"">
                                    <img src=""images/D25.png"" style= ""width:200px""alt=""img"">
                                </div>
                            </div>","-200","","0","images/D25.png","","","","[""Hard"",""Soft""]"
"","","","","","html-slider-response","83","205920","0.0-79.0","l2yh866dlq","NaN","<div style=""width:500px;"">
                                <p style=""font-size:50px; font-weight:bold;""
                                ></p>
                                <div style=""width:240px; margin: auto;"">
                                    <img src=""images/D49.png"" style= ""width:200px""alt=""img"">
                                </div>
                            </div>","190","","0","images/D49.png","","","","[""Hard"",""Soft""]"
"","","","","","html-slider-response","84","207733","0.0-80.0","l2yh866dlq","NaN","<div style=""width:500px;"">
                                <p style=""font-size:50px; font-weight:bold;""
                                ></p>
                                <div style=""width:240px; margin: auto;"">
                                    <img src=""images/D48.png"" style= ""width:200px""alt=""img"">
                                </div>
                            </div>","200","","0","images/D48.png","","","","[""Hard"",""Soft""]"
"","","","","","html-slider-response","85","211335","0.0-81.0","l2yh866dlq","NaN","<div style=""width:500px;"">
                                <p style=""font-size:50px; font-weight:bold;""
                                ></p>
                                <div style=""width:240px; margin: auto;"">
                                    <img src=""images/D14.png"" style= ""width:200px""alt=""img"">
                                </div>
                            </div>","54","","0","images/D14.png","","","","[""Hard"",""Soft""]"
"","","","","","html-slider-response","86","213380","0.0-82.0","l2yh866dlq","NaN","<div style=""width:500px;"">
                                <p style=""font-size:50px; font-weight:bold;""
                                ></p>
                                <div style=""width:240px; margin: auto;"">
                                    <img src=""images/D111.png"" style= ""width:200px""alt=""img"">
                                </div>
                            </div>","107","","0","images/D111.png","","","","[""Hard"",""Soft""]"
"","","","","","html-slider-response","87","215048","0.0-83.0","l2yh866dlq","NaN","<div style=""width:500px;"">
                                <p style=""font-size:50px; font-weight:bold;""
                                ></p>
                                <div style=""width:240px; margin: auto;"">
                                    <img src=""images/D21.png"" style= ""width:200px""alt=""img"">
                                </div>
                            </div>","190","","0","images/D21.png","","","","[""Hard"",""Soft""]"
"","","","","","html-slider-response","88","217023","0.0-84.0","l2yh866dlq","NaN","<div style=""width:500px;"">
                                <p style=""font-size:50px; font-weight:bold;""
                                ></p>
                                <div style=""width:240px; margin: auto;"">
                                    <img src=""images/D68.png"" style= ""width:200px""alt=""img"">
                                </div>
                            </div>","190","","0","images/D68.png","","","","[""Hard"",""Soft""]"
"","","","","","html-slider-response","89","218715","0.0-85.0","l2yh866dlq","NaN","<div style=""width:500px;"">
                                <p style=""font-size:50px; font-weight:bold;""
                                ></p>
                                <div style=""width:240px; margin: auto;"">
                                    <img src=""images/D77.png"" style= ""width:200px""alt=""img"">
                                </div>
                            </div>","200","","0","images/D77.png","","","","[""Hard"",""Soft""]"
"","","","","","html-slider-response","90","220868","0.0-86.0","l2yh866dlq","NaN","<div style=""width:500px;"">
                                <p style=""font-size:50px; font-weight:bold;""
                                ></p>
                                <div style=""width:240px; margin: auto;"">
                                    <img src=""images/D17.png"" style= ""width:200px""alt=""img"">
                                </div>
                            </div>","-185","","0","images/D17.png","","","","[""Hard"",""Soft""]"
"","","","","","html-slider-response","91","222743","0.0-87.0","l2yh866dlq","NaN","<div style=""width:500px;"">
                                <p style=""font-size:50px; font-weight:bold;""
                                ></p>
                                <div style=""width:240px; margin: auto;"">
                                    <img src=""images/D56.png"" style= ""width:200px""alt=""img"">
                                </div>
                            </div>","-97","","0","images/D56.png","","","","[""Hard"",""Soft""]"
"","","","","","html-slider-response","92","224756","0.0-88.0","l2yh866dlq","NaN","<div style=""width:500px;"">
                                <p style=""font-size:50px; font-weight:bold;""
                                ></p>
                                <div style=""width:240px; margin: auto;"">
                                    <img src=""images/D53.png"" style= ""width:200px""alt=""img"">
                                </div>
                            </div>","106","","0","images/D53.png","","","","[""Hard"",""Soft""]"
"","","","","","html-slider-response","93","227858","0.0-89.0","l2yh866dlq","NaN","<div style=""width:500px;"">
                                <p style=""font-size:50px; font-weight:bold;""
                                ></p>
                                <div style=""width:240px; margin: auto;"">
                                    <img src=""images/D101.png"" style= ""width:200px""alt=""img"">
                                </div>
                            </div>","199","","0","images/D101.png","","","","[""Hard"",""Soft""]"
"","","","","","html-slider-response","94","229812","0.0-90.0","l2yh866dlq","NaN","<div style=""width:500px;"">
                                <p style=""font-size:50px; font-weight:bold;""
                                ></p>
                                <div style=""width:240px; margin: auto;"">
                                    <img src=""images/D92.png"" style= ""width:200px""alt=""img"">
                                </div>
                            </div>","-58","","0","images/D92.png","","","","[""Hard"",""Soft""]"
"","","","","","html-slider-response","95","231300","0.0-91.0","l2yh866dlq","NaN","<div style=""width:500px;"">
                                <p style=""font-size:50px; font-weight:bold;""
                                ></p>
                                <div style=""width:240px; margin: auto;"">
                                    <img src=""images/D4.png"" style= ""width:200px""alt=""img"">
                                </div>
                            </div>","-70","","0","images/D4.png","","","","[""Hard"",""Soft""]"
"","","","","","html-slider-response","96","232987","0.0-92.0","l2yh866dlq","NaN","<div style=""width:500px;"">
                                <p style=""font-size:50px; font-weight:bold;""
                                ></p>
                                <div style=""width:240px; margin: auto;"">
                                    <img src=""images/D65.png"" style= ""width:200px""alt=""img"">
                                </div>
                            </div>","-78","","0","images/D65.png","","","","[""Hard"",""Soft""]"
"","","","","","html-slider-response","97","234649","0.0-93.0","l2yh866dlq","NaN","<div style=""width:500px;"">
                                <p style=""font-size:50px; font-weight:bold;""
                                ></p>
                                <div style=""width:240px; margin: auto;"">
                                    <img src=""images/D103.png"" style= ""width:200px""alt=""img"">
                                </div>
                            </div>","-90","","0","images/D103.png","","","","[""Hard"",""Soft""]"
"","","","","","html-slider-response","98","236627","0.0-94.0","l2yh866dlq","NaN","<div style=""width:500px;"">
                                <p style=""font-size:50px; font-weight:bold;""
                                ></p>
                                <div style=""width:240px; margin: auto;"">
                                    <img src=""images/D95.png"" style= ""width:200px""alt=""img"">
                                </div>
                            </div>","-200","","0","images/D95.png","","","","[""Hard"",""Soft""]"
"","","","","","html-slider-response","99","238710","0.0-95.0","l2yh866dlq","NaN","<div style=""width:500px;"">
                                <p style=""font-size:50px; font-weight:bold;""
                                ></p>
                                <div style=""width:240px; margin: auto;"">
                                    <img src=""images/D20.png"" style= ""width:200px""alt=""img"">
                                </div>
                            </div>","103","","0","images/D20.png","","","","[""Hard"",""Soft""]"
"","","","","","html-slider-response","100","240262","0.0-96.0","l2yh866dlq","NaN","<div style=""width:500px;"">
                                <p style=""font-size:50px; font-weight:bold;""
                                ></p>
                                <div style=""width:240px; margin: auto;"">
                                    <img src=""images/D104.png"" style= ""width:200px""alt=""img"">
                                </div>
                            </div>","94","","0","images/D104.png","","","","[""Hard"",""Soft""]"
"","","","","","html-slider-response","101","242732","0.0-97.0","l2yh866dlq","NaN","<div style=""width:500px;"">
                                <p style=""font-size:50px; font-weight:bold;""
                                ></p>
                                <div style=""width:240px; margin: auto;"">
                                    <img src=""images/D32.png"" style= ""width:200px""alt=""img"">
                                </div>
                            </div>","-200","","0","images/D32.png","","","","[""Hard"",""Soft""]"
"","","","","","html-slider-response","102","244592","0.0-98.0","l2yh866dlq","NaN","<div style=""width:500px;"">
                                <p style=""font-size:50px; font-weight:bold;""
                                ></p>
                                <div style=""width:240px; margin: auto;"">
                                    <img src=""images/D11.png"" style= ""width:200px""alt=""img"">
                                </div>
                            </div>","200","","0","images/D11.png","","","","[""Hard"",""Soft""]"
"","","","","","html-slider-response","103","246634","0.0-99.0","l2yh866dlq","NaN","<div style=""width:500px;"">
                                <p style=""font-size:50px; font-weight:bold;""
                                ></p>
                                <div style=""width:240px; margin: auto;"">
                                    <img src=""images/D3.png"" style= ""width:200px""alt=""img"">
                                </div>
                            </div>","107","","0","images/D3.png","","","","[""Hard"",""Soft""]"
"","","","","","html-slider-response","104","248194","0.0-100.0","l2yh866dlq","NaN","<div style=""width:500px;"">
                                <p style=""font-size:50px; font-weight:bold;""
                                ></p>
                                <div style=""width:240px; margin: auto;"">
                                    <img src=""images/D6.png"" style= ""width:200px""alt=""img"">
                                </div>
                            </div>","200","","0","images/D6.png","","","","[""Hard"",""Soft""]"
"","","","","","html-slider-response","105","250792","0.0-101.0","l2yh866dlq","NaN","<div style=""width:500px;"">
                                <p style=""font-size:50px; font-weight:bold;""
                                ></p>
                                <div style=""width:240px; margin: auto;"">
                                    <img src=""images/D84.png"" style= ""width:200px""alt=""img"">
                                </div>
                            </div>","98","","0","images/D84.png","","","","[""Hard"",""Soft""]"
"","","","","","html-slider-response","106","252786","0.0-102.0","l2yh866dlq","NaN","<div style=""width:500px;"">
                                <p style=""font-size:50px; font-weight:bold;""
                                ></p>
                                <div style=""width:240px; margin: auto;"">
                                    <img src=""images/D85.png"" style= ""width:200px""alt=""img"">
                                </div>
                            </div>","82","","0","images/D85.png","","","","[""Hard"",""Soft""]"
"","","","","","html-slider-response","107","255082","0.0-103.0","l2yh866dlq","NaN","<div style=""width:500px;"">
                                <p style=""font-size:50px; font-weight:bold;""
                                ></p>
                                <div style=""width:240px; margin: auto;"">
                                    <img src=""images/D18.png"" style= ""width:200px""alt=""img"">
                                </div>
                            </div>","-148","","0","images/D18.png","","","","[""Hard"",""Soft""]"
"","","","","","html-slider-response","108","258217","0.0-104.0","l2yh866dlq","NaN","<div style=""width:500px;"">
                                <p style=""font-size:50px; font-weight:bold;""
                                ></p>
                                <div style=""width:240px; margin: auto;"">
                                    <img src=""images/D66.png"" style= ""width:200px""alt=""img"">
                                </div>
                            </div>","-5","","0","images/D66.png","","","","[""Hard"",""Soft""]"
"","","","","","html-slider-response","109","259886","0.0-105.0","l2yh866dlq","NaN","<div style=""width:500px;"">
                                <p style=""font-size:50px; font-weight:bold;""
                                ></p>
                                <div style=""width:240px; margin: auto;"">
                                    <img src=""images/D57.png"" style= ""width:200px""alt=""img"">
                                </div>
                            </div>","-200","","0","images/D57.png","","","","[""Hard"",""Soft""]"
"","","","","","html-slider-response","110","261929","0.0-106.0","l2yh866dlq","NaN","<div style=""width:500px;"">
                                <p style=""font-size:50px; font-weight:bold;""
                                ></p>
                                <div style=""width:240px; margin: auto;"">
                                    <img src=""images/D106.png"" style= ""width:200px""alt=""img"">
                                </div>
                            </div>","-200","","0","images/D106.png","","","","[""Hard"",""Soft""]"
"","","","","","html-slider-response","111","264004","0.0-107.0","l2yh866dlq","NaN","<div style=""width:500px;"">
                                <p style=""font-size:50px; font-weight:bold;""
                                ></p>
                                <div style=""width:240px; margin: auto;"">
                                    <img src=""images/D47.png"" style= ""width:200px""alt=""img"">
                                </div>
                            </div>","-149","","0","images/D47.png","","","","[""Hard"",""Soft""]"
"","","","","","html-slider-response","112","265998","0.0-108.0","l2yh866dlq","NaN","<div style=""width:500px;"">
                                <p style=""font-size:50px; font-weight:bold;""
                                ></p>
                                <div style=""width:240px; margin: auto;"">
                                    <img src=""images/D24.png"" style= ""width:200px""alt=""img"">
                                </div>
                            </div>","183","","0","images/D24.png","","","","[""Hard"",""Soft""]"
"","","","","","html-slider-response","113","267882","0.0-109.0","l2yh866dlq","NaN","<div style=""width:500px;"">
                                <p style=""font-size:50px; font-weight:bold;""
                                ></p>
                                <div style=""width:240px; margin: auto;"">
                                    <img src=""images/D81.png"" style= ""width:200px""alt=""img"">
                                </div>
                            </div>","200","","0","images/D81.png","","","","[""Hard"",""Soft""]"
"","","","","","html-slider-response","114","269560","0.0-110.0","l2yh866dlq","NaN","<div style=""width:500px;"">
                                <p style=""font-size:50px; font-weight:bold;""
                                ></p>
                                <div style=""width:240px; margin: auto;"">
                                    <img src=""images/D36.png"" style= ""width:200px""alt=""img"">
                                </div>
                            </div>","118","","0","images/D36.png","","","","[""Hard"",""Soft""]"
"","","","","","html-slider-response","115","271406","0.0-111.0","l2yh866dlq","NaN","<div style=""width:500px;"">
                                <p style=""font-size:50px; font-weight:bold;""
                                ></p>
                                <div style=""width:240px; margin: auto;"">
                                    <img src=""images/D52.png"" style= ""width:200px""alt=""img"">
                                </div>
                            </div>","106","","0","images/D52.png","","","","[""Hard"",""Soft""]"
"","","","","","html-slider-response","116","273164","0.0-112.0","l2yh866dlq","NaN","<div style=""width:500px;"">
                                <p style=""font-size:50px; font-weight:bold;""
                                ></p>
                                <div style=""width:240px; margin: auto;"">
                                    <img src=""images/D64.png"" style= ""width:200px""alt=""img"">
                                </div>
                            </div>","-113","","0","images/D64.png","","","","[""Hard"",""Soft""]"
"","","","","","html-slider-response","117","275443","0.0-113.0","l2yh866dlq","NaN","<div style=""width:500px;"">
                                <p style=""font-size:50px; font-weight:bold;""
                                ></p>
                                <div style=""width:240px; margin: auto;"">
                                    <img src=""images/D75.png"" style= ""width:200px""alt=""img"">
                                </div>
                            </div>","200","","0","images/D75.png","","","","[""Hard"",""Soft""]"
"","","","","","html-slider-response","118","277978","0.0-114.0","l2yh866dlq","NaN","<div style=""width:500px;"">
                                <p style=""font-size:50px; font-weight:bold;""
                                ></p>
                                <div style=""width:240px; margin: auto;"">
                                    <img src=""images/D87.png"" style= ""width:200px""alt=""img"">
                                </div>
                            </div>","180","","0","images/D87.png","","","","[""Hard"",""Soft""]"
"","","","","","html-slider-response","119","280041","0.0-115.0","l2yh866dlq","NaN","<div style=""width:500px;"">
                                <p style=""font-size:50px; font-weight:bold;""
                                ></p>
                                <div style=""width:240px; margin: auto;"">
                                    <img src=""images/D37.png"" style= ""width:200px""alt=""img"">
                                </div>
                            </div>","200","","0","images/D37.png","","","","[""Hard"",""Soft""]"
"","","","","","html-slider-response","120","281949","0.0-116.0","l2yh866dlq","NaN","<div style=""width:500px;"">
                                <p style=""font-size:50px; font-weight:bold;""
                                ></p>
                                <div style=""width:240px; margin: auto;"">
                                    <img src=""images/D105.png"" style= ""width:200px""alt=""img"">
                                </div>
                            </div>","-123","","0","images/D105.png","","","","[""Hard"",""Soft""]"
"","","","","","html-slider-response","121","284096","0.0-117.0","l2yh866dlq","NaN","<div style=""width:500px;"">
                                <p style=""font-size:50px; font-weight:bold;""
                                ></p>
                                <div style=""width:240px; margin: auto;"">
                                    <img src=""images/D79.png"" style= ""width:200px""alt=""img"">
                                </div>
                            </div>","-111","","0","images/D79.png","","","","[""Hard"",""Soft""]"
"","","","","","html-slider-response","122","286097","0.0-118.0","l2yh866dlq","NaN","<div style=""width:500px;"">
                                <p style=""font-size:50px; font-weight:bold;""
                                ></p>
                                <div style=""width:240px; margin: auto;"">
                                    <img src=""images/D46.png"" style= ""width:200px""alt=""img"">
                                </div>
                            </div>","106","","0","images/D46.png","","","","[""Hard"",""Soft""]"
"","","","","","html-slider-response","123","287815","0.0-119.0","l2yh866dlq","NaN","<div style=""width:500px;"">
                                <p style=""font-size:50px; font-weight:bold;""
                                ></p>
                                <div style=""width:240px; margin: auto;"">
                                    <img src=""images/D94.png"" style= ""width:200px""alt=""img"">
                                </div>
                            </div>","-200","","0","images/D94.png","","","","[""Hard"",""Soft""]"
"","","","","","html-slider-response","124","289913","0.0-120.0","l2yh866dlq","NaN","<div style=""width:500px;"">
                                <p style=""font-size:50px; font-weight:bold;""
                                ></p>
                                <div style=""width:240px; margin: auto;"">
                                    <img src=""images/D29.png"" style= ""width:200px""alt=""img"">
                                </div>
                            </div>","200","","0","images/D29.png","","","","[""Hard"",""Soft""]"
"","","","","","html-slider-response","125","291884","0.0-121.0","l2yh866dlq","NaN","<div style=""width:500px;"">
                                <p style=""font-size:50px; font-weight:bold;""
                                ></p>
                                <div style=""width:240px; margin: auto;"">
                                    <img src=""images/D76.png"" style= ""width:200px""alt=""img"">
                                </div>
                            </div>","-125","","0","images/D76.png","","","","[""Hard"",""Soft""]"
"","","","","","html-slider-response","126","293627","0.0-122.0","l2yh866dlq","NaN","<div style=""width:500px;"">
                                <p style=""font-size:50px; font-weight:bold;""
                                ></p>
                                <div style=""width:240px; margin: auto;"">
                                    <img src=""images/D26.png"" style= ""width:200px""alt=""img"">
                                </div>
                            </div>","-135","","0","images/D26.png","","","","[""Hard"",""Soft""]"
"","","","","","html-slider-response","127","295161","0.0-123.0","l2yh866dlq","NaN","<div style=""width:500px;"">
                                <p style=""font-size:50px; font-weight:bold;""
                                ></p>
                                <div style=""width:240px; margin: auto;"">
                                    <img src=""images/D9.png"" style= ""width:200px""alt=""img"">
                                </div>
                            </div>","200","","0","images/D9.png","","","","[""Hard"",""Soft""]"
"","","","","","html-slider-response","128","298052","0.0-124.0","l2yh866dlq","NaN","<div style=""width:500px;"">
                                <p style=""font-size:50px; font-weight:bold;""
                                ></p>
                                <div style=""width:240px; margin: auto;"">
                                    <img src=""images/D34.png"" style= ""width:200px""alt=""img"">
                                </div>
                            </div>","66","","0","images/D34.png","","","","[""Hard"",""Soft""]"
"","","","","","html-slider-response","129","299681","0.0-125.0","l2yh866dlq","NaN","<div style=""width:500px;"">
                                <p style=""font-size:50px; font-weight:bold;""
                                ></p>
                                <div style=""width:240px; margin: auto;"">
                                    <img src=""images/D1.png"" style= ""width:200px""alt=""img"">
                                </div>
                            </div>","-200","","0","images/D1.png","","","","[""Hard"",""Soft""]"
"","","","","","html-slider-response","130","301837","0.0-126.0","l2yh866dlq","NaN","<div style=""width:500px;"">
                                <p style=""font-size:50px; font-weight:bold;""
                                ></p>
                                <div style=""width:240px; margin: auto;"">
                                    <img src=""images/D82.png"" style= ""width:200px""alt=""img"">
                                </div>
                            </div>","-57","","0","images/D82.png","","","","[""Hard"",""Soft""]"
"","","","","","html-slider-response","131","303440","0.0-127.0","l2yh866dlq","NaN","<div style=""width:500px;"">
                                <p style=""font-size:50px; font-weight:bold;""
                                ></p>
                                <div style=""width:240px; margin: auto;"">
                                    <img src=""images/D35.png"" style= ""width:200px""alt=""img"">
                                </div>
                            </div>","106","","0","images/D35.png","","","","[""Hard"",""Soft""]"
"","","","","","html-slider-response","132","304976","0.0-128.0","l2yh866dlq","NaN","<div style=""width:500px;"">
                                <p style=""font-size:50px; font-weight:bold;""
                                ></p>
                                <div style=""width:240px; margin: auto;"">
                                    <img src=""images/D51.png"" style= ""width:200px""alt=""img"">
                                </div>
                            </div>","-114","","0","images/D51.png","","","","[""Hard"",""Soft""]"
"","","","","","html-slider-response","133","306591","0.0-129.0","l2yh866dlq","NaN","<div style=""width:500px;"">
                                <p style=""font-size:50px; font-weight:bold;""
                                ></p>
                                <div style=""width:240px; margin: auto;"">
                                    <img src=""images/D96.png"" style= ""width:200px""alt=""img"">
                                </div>
                            </div>","-200","","0","images/D96.png","","","","[""Hard"",""Soft""]"
"","","","","","html-slider-response","134","308475","0.0-130.0","l2yh866dlq","NaN","<div style=""width:500px;"">
                                <p style=""font-size:50px; font-weight:bold;""
                                ></p>
                                <div style=""width:240px; margin: auto;"">
                                    <img src=""images/D19.png"" style= ""width:200px""alt=""img"">
                                </div>
                            </div>","200","","0","images/D19.png","","","","[""Hard"",""Soft""]"
"","","","","","html-slider-response","135","309915","0.0-131.0","l2yh866dlq","NaN","<div style=""width:500px;"">
                                <p style=""font-size:50px; font-weight:bold;""
                                ></p>
                                <div style=""width:240px; margin: auto;"">
                                    <img src=""images/D80.png"" style= ""width:200px""alt=""img"">
                                </div>
                            </div>","200","","0","images/D80.png","","","","[""Hard"",""Soft""]"
"","","","","","html-slider-response","136","311491","0.0-132.0","l2yh866dlq","NaN","<div style=""width:500px;"">
                                <p style=""font-size:50px; font-weight:bold;""
                                ></p>
                                <div style=""width:240px; margin: auto;"">
                                    <img src=""images/D78.png"" style= ""width:200px""alt=""img"">
                                </div>
                            </div>","-200","","0","images/D78.png","","","","[""Hard"",""Soft""]"
"","","","","","html-slider-response","137","313113","0.0-133.0","l2yh866dlq","NaN","<div style=""width:500px;"">
                                <p style=""font-size:50px; font-weight:bold;""
                                ></p>
                                <div style=""width:240px; margin: auto;"">
                                    <img src=""images/D83.png"" style= ""width:200px""alt=""img"">
                                </div>
                            </div>","-126","","0","images/D83.png","","","","[""Hard"",""Soft""]"
"","","","","","html-slider-response","138","314690","0.0-134.0","l2yh866dlq","NaN","<div style=""width:500px;"">
                                <p style=""font-size:50px; font-weight:bold;""
                                ></p>
                                <div style=""width:240px; margin: auto;"">
                                    <img src=""images/D22.png"" style= ""width:200px""alt=""img"">
                                </div>
                            </div>","-126","","0","images/D22.png","","","","[""Hard"",""Soft""]"
"","","","","","html-slider-response","139","316200","0.0-135.0","l2yh866dlq","NaN","<div style=""width:500px;"">
                                <p style=""font-size:50px; font-weight:bold;""
                                ></p>
                                <div style=""width:240px; margin: auto;"">
                                    <img src=""images/D16.png"" style= ""width:200px""alt=""img"">
                                </div>
                            </div>","200","","0","images/D16.png","","","","[""Hard"",""Soft""]"
"","","","","","html-slider-response","140","317841","0.0-136.0","l2yh866dlq","NaN","<div style=""width:500px;"">
                                <p style=""font-size:50px; font-weight:bold;""
                                ></p>
                                <div style=""width:240px; margin: auto;"">
                                    <img src=""images/D74.png"" style= ""width:200px""alt=""img"">
                                </div>
                            </div>","191","","0","images/D74.png","","","","[""Hard"",""Soft""]"
"","","","","","html-slider-response","141","319462","0.0-137.0","l2yh866dlq","NaN","<div style=""width:500px;"">
                                <p style=""font-size:50px; font-weight:bold;""
                                ></p>
                                <div style=""width:240px; margin: auto;"">
                                    <img src=""images/D8.png"" style= ""width:200px""alt=""img"">
                                </div>
                            </div>","181","","0","images/D8.png","","","","[""Hard"",""Soft""]"
"","","","","","html-slider-response","142","321726","0.0-138.0","l2yh866dlq","NaN","<div style=""width:500px;"">
                                <p style=""font-size:50px; font-weight:bold;""
                                ></p>
                                <div style=""width:240px; margin: auto;"">
                                    <img src=""images/D102.png"" style= ""width:200px""alt=""img"">
                                </div>
                            </div>","76","","0","images/D102.png","","","","[""Hard"",""Soft""]"
"","","","","","html-slider-response","143","323365","0.0-139.0","l2yh866dlq","NaN","<div style=""width:500px;"">
                                <p style=""font-size:50px; font-weight:bold;""
                                ></p>
                                <div style=""width:240px; margin: auto;"">
                                    <img src=""images/D55.png"" style= ""width:200px""alt=""img"">
                                </div>
                            </div>","60","","0","images/D55.png","","","","[""Hard"",""Soft""]"
"","","","","","html-button-response","144","325589","0.0-140.0","l2yh866dlq","1722","You have completed the second block of trials out of six. Please click 'Continue' when you are ready proceed.","0","","","","","","",""
"","","","","","html-button-response","145","391995","0.0-141.0","l2yh866dlq","66406","In the following trials, you will be asked to rate textures on the scale <b>Non-Random</b> versus <b>Random</b>. Please click 'Continue' when you are ready proceed.","0","","","","","","",""
"","","","","","html-slider-response","146","396108","0.0-142.0","l2yh866dlq","NaN","<div style=""width:500px;"">
                                <p style=""font-size:50px; font-weight:bold;""
                                ></p>
                                <div style=""width:240px; margin: auto;"">
                                    <img src=""images/D11.png"" style= ""width:200px""alt=""img"">
                                </div>
                            </div>","97","","0","images/D11.png","","","","[""Non-random"",""Random""]"
"","","","","","html-slider-response","147","398887","0.0-143.0","l2yh866dlq","NaN","<div style=""width:500px;"">
                                <p style=""font-size:50px; font-weight:bold;""
                                ></p>
                                <div style=""width:240px; margin: auto;"">
                                    <img src=""images/D19.png"" style= ""width:200px""alt=""img"">
                                </div>
                            </div>","-133","","0","images/D19.png","","","","[""Non-random"",""Random""]"
"","","","","","html-slider-response","148","400493","0.0-144.0","l2yh866dlq","NaN","<div style=""width:500px;"">
                                <p style=""font-size:50px; font-weight:bold;""
                                ></p>
                                <div style=""width:240px; margin: auto;"">
                                    <img src=""images/D65.png"" style= ""width:200px""alt=""img"">
                                </div>
                            </div>","-144","","0","images/D65.png","","","","[""Non-random"",""Random""]"
"","","","","","html-slider-response","149","402115","0.0-145.0","l2yh866dlq","NaN","<div style=""width:500px;"">
                                <p style=""font-size:50px; font-weight:bold;""
                                ></p>
                                <div style=""width:240px; margin: auto;"">
                                    <img src=""images/D53.png"" style= ""width:200px""alt=""img"">
                                </div>
                            </div>","-193","","0","images/D53.png","","","","[""Non-random"",""Random""]"
"","","","","","html-slider-response","150","404015","0.0-146.0","l2yh866dlq","NaN","<div style=""width:500px;"">
                                <p style=""font-size:50px; font-weight:bold;""
                                ></p>
                                <div style=""width:240px; margin: auto;"">
                                    <img src=""images/D92.png"" style= ""width:200px""alt=""img"">
                                </div>
                            </div>","-179","","0","images/D92.png","","","","[""Non-random"",""Random""]"
"","","","","","html-slider-response","151","408606","0.0-147.0","l2yh866dlq","NaN","<div style=""width:500px;"">
                                <p style=""font-size:50px; font-weight:bold;""
                                ></p>
                                <div style=""width:240px; margin: auto;"">
                                    <img src=""images/D1.png"" style= ""width:200px""alt=""img"">
                                </div>
                            </div>","-200","","0","images/D1.png","","","","[""Non-random"",""Random""]"
"","","","","","html-slider-response","152","411157","0.0-148.0","l2yh866dlq","NaN","<div style=""width:500px;"">
                                <p style=""font-size:50px; font-weight:bold;""
                                ></p>
                                <div style=""width:240px; margin: auto;"">
                                    <img src=""images/D16.png"" style= ""width:200px""alt=""img"">
                                </div>
                            </div>","-200","","0","images/D16.png","","","","[""Non-random"",""Random""]"
"","","","","","html-slider-response","153","413214","0.0-149.0","l2yh866dlq","NaN","<div style=""width:500px;"">
                                <p style=""font-size:50px; font-weight:bold;""
                                ></p>
                                <div style=""width:240px; margin: auto;"">
                                    <img src=""images/D21.png"" style= ""width:200px""alt=""img"">
                                </div>
                            </div>","-200","","0","images/D21.png","","","","[""Non-random"",""Random""]"
"","","","","","html-slider-response","154","415240","0.0-150.0","l2yh866dlq","NaN","<div style=""width:500px;"">
                                <p style=""font-size:50px; font-weight:bold;""
                                ></p>
                                <div style=""width:240px; margin: auto;"">
                                    <img src=""images/D94.png"" style= ""width:200px""alt=""img"">
                                </div>
                            </div>","-200","","0","images/D94.png","","","","[""Non-random"",""Random""]"
"","","","","","html-slider-response","155","418639","0.0-151.0","l2yh866dlq","NaN","<div style=""width:500px;"">
                                <p style=""font-size:50px; font-weight:bold;""
                                ></p>
                                <div style=""width:240px; margin: auto;"">
                                    <img src=""images/D47.png"" style= ""width:200px""alt=""img"">
                                </div>
                            </div>","-118","","0","images/D47.png","","","","[""Non-random"",""Random""]"
"","","","","","html-slider-response","156","420774","0.0-152.0","l2yh866dlq","NaN","<div style=""width:500px;"">
                                <p style=""font-size:50px; font-weight:bold;""
                                ></p>
                                <div style=""width:240px; margin: auto;"">
                                    <img src=""images/D106.png"" style= ""width:200px""alt=""img"">
                                </div>
                            </div>","-200","","0","images/D106.png","","","","[""Non-random"",""Random""]"
"","","","","","html-slider-response","157","422578","0.0-153.0","l2yh866dlq","NaN","<div style=""width:500px;"">
                                <p style=""font-size:50px; font-weight:bold;""
                                ></p>
                                <div style=""width:240px; margin: auto;"">
                                    <img src=""images/D85.png"" style= ""width:200px""alt=""img"">
                                </div>
                            </div>","-200","","0","images/D85.png","","","","[""Non-random"",""Random""]"
"","","","","","html-slider-response","158","424329","0.0-154.0","l2yh866dlq","NaN","<div style=""width:500px;"">
                                <p style=""font-size:50px; font-weight:bold;""
                                ></p>
                                <div style=""width:240px; margin: auto;"">
                                    <img src=""images/D49.png"" style= ""width:200px""alt=""img"">
                                </div>
                            </div>","-200","","0","images/D49.png","","","","[""Non-random"",""Random""]"
"","","","","","html-slider-response","159","426474","0.0-155.0","l2yh866dlq","NaN","<div style=""width:500px;"">
                                <p style=""font-size:50px; font-weight:bold;""
                                ></p>
                                <div style=""width:240px; margin: auto;"">
                                    <img src=""images/D95.png"" style= ""width:200px""alt=""img"">
                                </div>
                            </div>","-200","","0","images/D95.png","","","","[""Non-random"",""Random""]"
"","","","","","html-slider-response","160","428580","0.0-156.0","l2yh866dlq","NaN","<div style=""width:500px;"">
                                <p style=""font-size:50px; font-weight:bold;""
                                ></p>
                                <div style=""width:240px; margin: auto;"">
                                    <img src=""images/D101.png"" style= ""width:200px""alt=""img"">
                                </div>
                            </div>","108","","0","images/D101.png","","","","[""Non-random"",""Random""]"
"","","","","","html-slider-response","161","430496","0.0-157.0","l2yh866dlq","NaN","<div style=""width:500px;"">
                                <p style=""font-size:50px; font-weight:bold;""
                                ></p>
                                <div style=""width:240px; margin: auto;"">
                                    <img src=""images/D25.png"" style= ""width:200px""alt=""img"">
                                </div>
                            </div>","-200","","0","images/D25.png","","","","[""Non-random"",""Random""]"
"","","","","","html-slider-response","162","432143","0.0-158.0","l2yh866dlq","NaN","<div style=""width:500px;"">
                                <p style=""font-size:50px; font-weight:bold;""
                                ></p>
                                <div style=""width:240px; margin: auto;"">
                                    <img src=""images/D84.png"" style= ""width:200px""alt=""img"">
                                </div>
                            </div>","-116","","0","images/D84.png","","","","[""Non-random"",""Random""]"
"","","","","","html-slider-response","163","435032","0.0-159.0","l2yh866dlq","NaN","<div style=""width:500px;"">
                                <p style=""font-size:50px; font-weight:bold;""
                                ></p>
                                <div style=""width:240px; margin: auto;"">
                                    <img src=""images/D64.png"" style= ""width:200px""alt=""img"">
                                </div>
                            </div>","-130","","0","images/D64.png","","","","[""Non-random"",""Random""]"
"","","","","","html-slider-response","164","437511","0.0-160.0","l2yh866dlq","NaN","<div style=""width:500px;"">
                                <p style=""font-size:50px; font-weight:bold;""
                                ></p>
                                <div style=""width:240px; margin: auto;"">
                                    <img src=""images/D6.png"" style= ""width:200px""alt=""img"">
                                </div>
                            </div>","106","","0","images/D6.png","","","","[""Non-random"",""Random""]"
"","","","","","html-slider-response","165","439530","0.0-161.0","l2yh866dlq","NaN","<div style=""width:500px;"">
                                <p style=""font-size:50px; font-weight:bold;""
                                ></p>
                                <div style=""width:240px; margin: auto;"">
                                    <img src=""images/D24.png"" style= ""width:200px""alt=""img"">
                                </div>
                            </div>","82","","0","images/D24.png","","","","[""Non-random"",""Random""]"
"","","","","","html-slider-response","166","441509","0.0-162.0","l2yh866dlq","NaN","<div style=""width:500px;"">
                                <p style=""font-size:50px; font-weight:bold;""
                                ></p>
                                <div style=""width:240px; margin: auto;"">
                                    <img src=""images/D111.png"" style= ""width:200px""alt=""img"">
                                </div>
                            </div>","200","","0","images/D111.png","","","","[""Non-random"",""Random""]"
"","","","","","html-slider-response","167","444311","0.0-163.0","l2yh866dlq","NaN","<div style=""width:500px;"">
                                <p style=""font-size:50px; font-weight:bold;""
                                ></p>
                                <div style=""width:240px; margin: auto;"">
                                    <img src=""images/D29.png"" style= ""width:200px""alt=""img"">
                                </div>
                            </div>","98","","0","images/D29.png","","","","[""Non-random"",""Random""]"
"","","","","","html-slider-response","168","446844","0.0-164.0","l2yh866dlq","NaN","<div style=""width:500px;"">
                                <p style=""font-size:50px; font-weight:bold;""
                                ></p>
                                <div style=""width:240px; margin: auto;"">
                                    <img src=""images/D20.png"" style= ""width:200px""alt=""img"">
                                </div>
                            </div>","-114","","0","images/D20.png","","","","[""Non-random"",""Random""]"
"","","","","","html-slider-response","169","450265","0.0-165.0","l2yh866dlq","NaN","<div style=""width:500px;"">
                                <p style=""font-size:50px; font-weight:bold;""
                                ></p>
                                <div style=""width:240px; margin: auto;"">
                                    <img src=""images/D80.png"" style= ""width:200px""alt=""img"">
                                </div>
                            </div>","-87","","0","images/D80.png","","","","[""Non-random"",""Random""]"
"","","","","","html-slider-response","170","451935","0.0-166.0","l2yh866dlq","NaN","<div style=""width:500px;"">
                                <p style=""font-size:50px; font-weight:bold;""
                                ></p>
                                <div style=""width:240px; margin: auto;"">
                                    <img src=""images/D26.png"" style= ""width:200px""alt=""img"">
                                </div>
                            </div>","-196","","0","images/D26.png","","","","[""Non-random"",""Random""]"
"","","","","","html-slider-response","171","453993","0.0-167.0","l2yh866dlq","NaN","<div style=""width:500px;"">
                                <p style=""font-size:50px; font-weight:bold;""
                                ></p>
                                <div style=""width:240px; margin: auto;"">
                                    <img src=""images/D9.png"" style= ""width:200px""alt=""img"">
                                </div>
                            </div>","99","","0","images/D9.png","","","","[""Non-random"",""Random""]"
"","","","","","html-slider-response","172","456734","0.0-168.0","l2yh866dlq","NaN","<div style=""width:500px;"">
                                <p style=""font-size:50px; font-weight:bold;""
                                ></p>
                                <div style=""width:240px; margin: auto;"">
                                    <img src=""images/D87.png"" style= ""width:200px""alt=""img"">
                                </div>
                            </div>","95","","0","images/D87.png","","","","[""Non-random"",""Random""]"
"","","","","","html-slider-response","173","458626","0.0-169.0","l2yh866dlq","NaN","<div style=""width:500px;"">
                                <p style=""font-size:50px; font-weight:bold;""
                                ></p>
                                <div style=""width:240px; margin: auto;"">
                                    <img src=""images/D8.png"" style= ""width:200px""alt=""img"">
                                </div>
                            </div>","-100","","0","images/D8.png","","","","[""Non-random"",""Random""]"
"","","","","","html-slider-response","174","460333","0.0-170.0","l2yh866dlq","NaN","<div style=""width:500px;"">
                                <p style=""font-size:50px; font-weight:bold;""
                                ></p>
                                <div style=""width:240px; margin: auto;"">
                                    <img src=""images/D51.png"" style= ""width:200px""alt=""img"">
                                </div>
                            </div>","200","","0","images/D51.png","","","","[""Non-random"",""Random""]"
"","","","","","html-slider-response","175","462290","0.0-171.0","l2yh866dlq","NaN","<div style=""width:500px;"">
                                <p style=""font-size:50px; font-weight:bold;""
                                ></p>
                                <div style=""width:240px; margin: auto;"">
                                    <img src=""images/D78.png"" style= ""width:200px""alt=""img"">
                                </div>
                            </div>","200","","0","images/D78.png","","","","[""Non-random"",""Random""]"
"","","","","","html-slider-response","176","464227","0.0-172.0","l2yh866dlq","NaN","<div style=""width:500px;"">
                                <p style=""font-size:50px; font-weight:bold;""
                                ></p>
                                <div style=""width:240px; margin: auto;"">
                                    <img src=""images/D74.png"" style= ""width:200px""alt=""img"">
                                </div>
                            </div>","200","","0","images/D74.png","","","","[""Non-random"",""Random""]"
"","","","","","html-slider-response","177","466549","0.0-173.0","l2yh866dlq","NaN","<div style=""width:500px;"">
                                <p style=""font-size:50px; font-weight:bold;""
                                ></p>
                                <div style=""width:240px; margin: auto;"">
                                    <img src=""images/D83.png"" style= ""width:200px""alt=""img"">
                                </div>
                            </div>","137","","0","images/D83.png","","","","[""Non-random"",""Random""]"
"","","","","","html-slider-response","178","470023","0.0-174.0","l2yh866dlq","NaN","<div style=""width:500px;"">
                                <p style=""font-size:50px; font-weight:bold;""
                                ></p>
                                <div style=""width:240px; margin: auto;"">
                                    <img src=""images/D77.png"" style= ""width:200px""alt=""img"">
                                </div>
                            </div>","100","","0","images/D77.png","","","","[""Non-random"",""Random""]"
"","","","","","html-slider-response","179","471868","0.0-175.0","l2yh866dlq","NaN","<div style=""width:500px;"">
                                <p style=""font-size:50px; font-weight:bold;""
                                ></p>
                                <div style=""width:240px; margin: auto;"">
                                    <img src=""images/D35.png"" style= ""width:200px""alt=""img"">
                                </div>
                            </div>","200","","0","images/D35.png","","","","[""Non-random"",""Random""]"
"","","","","","html-slider-response","180","473688","0.0-176.0","l2yh866dlq","NaN","<div style=""width:500px;"">
                                <p style=""font-size:50px; font-weight:bold;""
                                ></p>
                                <div style=""width:240px; margin: auto;"">
                                    <img src=""images/D104.png"" style= ""width:200px""alt=""img"">
                                </div>
                            </div>","200","","0","images/D104.png","","","","[""Non-random"",""Random""]"
"","","","","","html-slider-response","181","475589","0.0-177.0","l2yh866dlq","NaN","<div style=""width:500px;"">
                                <p style=""font-size:50px; font-weight:bold;""
                                ></p>
                                <div style=""width:240px; margin: auto;"">
                                    <img src=""images/D48.png"" style= ""width:200px""alt=""img"">
                                </div>
                            </div>","200","","0","images/D48.png","","","","[""Non-random"",""Random""]"
"","","","","","html-slider-response","182","477994","0.0-178.0","l2yh866dlq","NaN","<div style=""width:500px;"">
                                <p style=""font-size:50px; font-weight:bold;""
                                ></p>
                                <div style=""width:240px; margin: auto;"">
                                    <img src=""images/D37.png"" style= ""width:200px""alt=""img"">
                                </div>
                            </div>","-200","","0","images/D37.png","","","","[""Non-random"",""Random""]"
"","","","","","html-slider-response","183","480133","0.0-179.0","l2yh866dlq","NaN","<div style=""width:500px;"">
                                <p style=""font-size:50px; font-weight:bold;""
                                ></p>
                                <div style=""width:240px; margin: auto;"">
                                    <img src=""images/D76.png"" style= ""width:200px""alt=""img"">
                                </div>
                            </div>","-104","","0","images/D76.png","","","","[""Non-random"",""Random""]"
"","","","","","html-slider-response","184","482088","0.0-180.0","l2yh866dlq","NaN","<div style=""width:500px;"">
                                <p style=""font-size:50px; font-weight:bold;""
                                ></p>
                                <div style=""width:240px; margin: auto;"">
                                    <img src=""images/D102.png"" style= ""width:200px""alt=""img"">
                                </div>
                            </div>","82","","0","images/D102.png","","","","[""Non-random"",""Random""]"
"","","","","","html-slider-response","185","484193","0.0-181.0","l2yh866dlq","NaN","<div style=""width:500px;"">
                                <p style=""font-size:50px; font-weight:bold;""
                                ></p>
                                <div style=""width:240px; margin: auto;"">
                                    <img src=""images/D68.png"" style= ""width:200px""alt=""img"">
                                </div>
                            </div>","-99","","0","images/D68.png","","","","[""Non-random"",""Random""]"
"","","","","","html-slider-response","186","487913","0.0-182.0","l2yh866dlq","NaN","<div style=""width:500px;"">
                                <p style=""font-size:50px; font-weight:bold;""
                                ></p>
                                <div style=""width:240px; margin: auto;"">
                                    <img src=""images/D75.png"" style= ""width:200px""alt=""img"">
                                </div>
                            </div>","200","","0","images/D75.png","","","","[""Non-random"",""Random""]"
"","","","","","html-slider-response","187","494497","0.0-183.0","l2yh866dlq","NaN","<div style=""width:500px;"">
                                <p style=""font-size:50px; font-weight:bold;""
