"success","timeout","failed_images","failed_audio","failed_video","trial_type","trial_index","time_elapsed","internal_node_id","subject_id","rt","stimulus","response","question_order","slider_start","image_path","practiceTrial","practiceTrialNum","correct","slider_labels"
"true","false","[]","[]","[]","preload","0","8116","0.0-0.0","lycxx55pe7","","","","","","","","","",""
"","","","","","html-button-response","1","7637860","0.0-1.0","lycxx55pe7","6579637","<div style='text-align:center; font-size:20px; line-height:25px; width: 1200px;'>
                Welcome to our experiment! <br>
                <br>At the bottom of this screen, you will see a button that says 'Begin Experiment.
                <br>Please only click that button when you are ready to complete the 25 minute experiment in one sitting. <br>
                <br> Once you click that button, it will not be possible to restart the experiment. <br><br>","0","","","","","","",""
"true","","","","","fullscreen","2","7640200","0.0-2.0","lycxx55pe7","1334","","","","","","","","",""
"","","","","","survey-multi-select","3","7648389","0.0-3.0","lycxx55pe7","8183","","{""Consent"":[""<strong>I consent</strong>""]}","[0]","","","","","",""
"","","","","","html-button-response","4","7649748","0.0-4.0","lycxx55pe7","1358","Welcome! <p> This experiment involves two parts: demographic information, followed by the experimental task.<p> It will take about 25 minutes to complete both parts.","0","","","","","","",""
"","","","","","survey-text","5","7656081","0.0-5.0","lycxx55pe7","6332","","{""Age"":""20"",""Gender"":""Female"",""Race/ethnicity"":""White""}","","","","","","",""
"","","","","","html-slider-response","6","7676651","0.0-6.0","lycxx55pe7","20568","
                <div style='text-align:center; height: auto; margin-left=-100px; margin-bottom: -20px; font-size:20px; line-height:5px; width: 1200px;'>
                    <br>During this experiment, you will see a series of textures, one at a time, like the ones below: 
                </div>
                    <br>
                    <br>
                    <img src=""anchoring_visual_textures.png"" alt=""img"" style=""max-width:1200px; margin-left: -10px;"">
                </div>
                <div style=""clear: both;""></div>
                </div>
                    <div style='text-align:center; margin-left=-100px; font-size:20px; line-height:20px; width: 1200px; margin-top: -50px;'>
                    
                    <br> For each texture, you will be asked to rate where you think it falls on each of the response scales with the following endpoints:
                    </div>
                            <div style=""text-align: center; width: 1400px; "">
                                <p style=""font-size:20px; line-height:5px; ""><b>Stripey</b> versus <b>Blobby</b></p>
                                <p style=""font-size:20px; line-height:5px; ""><b>Rectangular</b> versus <b>Rounded</b></p>
                                <p style=""font-size:20px;line-height:5px;""><b>Fine</b> versus <b>Coarse</b></p>
                                <p style=""font-size:20px;line-height:5px; ""><b>Smooth</b> versus <b>Rough</b></p>
                                <p style=""font-size:20px;line-height:5px; ""><b>Non-Random</b> versus <b>Random</b></p>
                                <p style=""font-size:20px;line-height:5px;""><b>Soft</b> versus <b>Hard</b></p>
                            </div>
                            <div style='text-align:center; font-size:20px; line-height:20px; width: 1400px;'>
                    
                    Each trial will include one texture and one response scale. You will be asked to make your rating by sliding the cursor along a slider response scale like the one below.
                    <br><br> Before beginning, please look at the textures and scales. For each scale, think about the texture you associate most with the left endpoint. When you see that texture for that response scale, please click near the left of the scale.
                    <br><br> Now, please think about the texture you associate most with the right endpoint of each scale. When you see that texture for that response scale, please click near the right of the scale. 
                    <br><br> If you think a texture is not strongly associated with either endpoint of the scale, please click near the midpoint of the scale. Please use the full range of the scale. 
                    <br><br> You will be asked to rate each texture for a given scale before moving on to the next scale.
                    <br><br> Please press the 'Continue' button for instructions on how to use the slider.                     <br><br>
                ","null","","0","visual_textures_anchoring.png","true","","",""
"","","","","","html-button-response","7","7680153","0.0-7.0","lycxx55pe7","3502","<div style=""width:1200px; margin-top:-150px;""><p style=""text-align:center; font-size:24px;"">To move the slider, click and drag your cursor to the location of the scale where you would like to make your rating and then let go. <br><br> When you let go of the slider, your response will be recorded and the next trial will begin. <br><br><br>
                We are interested in your initial impressions of each texture and scale, so please go with your first intuition. <br><br>
                Before you begin the experiment, there will be four training trials for you to practice using the scale. <br><br><br><br></div>
                <div style=""width:1200px;""><p style=""text-align:center; font-size:20px;"">When you are ready to start the training trials, please click ""Continue"".</p></div>","0","","","","","","",""
"","","","","","html-slider-response","8","7684033","0.0-8.0-0.0","lycxx55pe7","NaN","<div style=""width:500px;"">
                                <p style=""font-size:25px;"">Please move the slider all the way to the <br> right endpoint of the scale</p>

                                </div>
                            </div>","200","","0","","true","0","true",""
"","","","","","html-button-response","9","7685427","0.0-8.0-1.0","lycxx55pe7","891","<p align='center'><b>Good job!</b> Click on 'Continue' to proceed.</p>","0","","","","","","",""
"","","","","","html-slider-response","10","7687446","0.0-9.0-0.0","lycxx55pe7","NaN","<div style=""width:500px;"">
                                <p style=""font-size:25px;"">Please move the slider all the way to the <br> left endpoint of the scale</p>

                                </div>
                            </div>","-200","","0","","true","1","true",""
"","","","","","html-button-response","11","7688936","0.0-9.0-1.0","lycxx55pe7","988","<p align='center'><b>Good job!</b> Click on 'Continue' to proceed.</p>","0","","","","","","",""
"","","","","","html-slider-response","12","7692316","0.0-10.0-0.0","lycxx55pe7","NaN","<div style=""width:500px;"">
                                <p style=""font-size:25px;"">Please move the slider halfway between the center and right endpoint of the scale</p>

                                </div>
                            </div>","1","","0","","true","2","false",""
"","","","","","html-button-response","13","7693856","0.0-10.0-1.0","lycxx55pe7","1037","<p align='center'><b>Not quite!</b> The slider was not placed near the instructed locattion. Click on 'Continue' to try again. </p>","0","","","","","","",""
"","","","","","html-slider-response","14","7696598","0.0-10.1-0.1","lycxx55pe7","NaN","<div style=""width:500px;"">
                                <p style=""font-size:25px;"">Please move the slider halfway between the center and right endpoint of the scale</p>

                                </div>
                            </div>","102","","0","","true","2","true",""
"","","","","","html-button-response","15","7697857","0.0-10.1-1.1","lycxx55pe7","756","<p align='center'><b>Good job!</b> Click on 'Continue' to proceed.</p>","0","","","","","","",""
"","","","","","html-slider-response","16","7700257","0.0-11.0-0.0","lycxx55pe7","NaN","<div style=""width:500px;"">
                                <p style=""font-size:25px;"">Please move the slider halfway between the center and left endpoint of the scale</p>

                                </div>
                            </div>","-120","","0","","true","3","false",""
"","","","","","html-button-response","17","7701745","0.0-11.0-1.0","lycxx55pe7","987","<p align='center'><b>Not quite!</b> The slider was not placed near the instructed locattion. Click on 'Continue' to try again. </p>","0","","","","","","",""
"","","","","","html-slider-response","18","7705856","0.0-11.1-0.1","lycxx55pe7","NaN","<div style=""width:500px;"">
                                <p style=""font-size:25px;"">Please move the slider halfway between the center and left endpoint of the scale</p>

                                </div>
                            </div>","-114","","0","","true","3","false",""
"","","","","","html-button-response","19","7708354","0.0-11.1-1.1","lycxx55pe7","1995","<p align='center'><b>Not quite!</b> The slider was not placed near the instructed locattion. Click on 'Continue' to try again. </p>","0","","","","","","",""
"","","","","","html-slider-response","20","7712056","0.0-11.2-0.2","lycxx55pe7","NaN","<div style=""width:500px;"">
                                <p style=""font-size:25px;"">Please move the slider halfway between the center and left endpoint of the scale</p>

                                </div>
                            </div>","-129","","0","","true","3","false",""
"","","","","","html-button-response","21","7713422","0.0-11.2-1.2","lycxx55pe7","862","<p align='center'><b>Not quite!</b> The slider was not placed near the instructed locattion. Click on 'Continue' to try again. </p>","0","","","","","","",""
"","","","","","html-slider-response","22","7714656","0.0-11.3-0.3","lycxx55pe7","NaN","<div style=""width:500px;"">
                                <p style=""font-size:25px;"">Please move the slider halfway between the center and left endpoint of the scale</p>

                                </div>
                            </div>","-98","","0","","true","3","true",""
"","","","","","html-button-response","23","7715792","0.0-11.3-1.3","lycxx55pe7","634","<p align='center'><b>Good job!</b> Click on 'Continue' to proceed.</p>","0","","","","","","",""
"","","","","","html-button-response","24","7719687","0.0-12.0","lycxx55pe7","3895","<div style=""width:800px; margin-top:-300px;""><p style=""text-align:center; font-size:22px; line-height:25px;""""> Great job! You've completed the practice trials.</div>
                     <div style=""width:800px; margin-top:-20px;""><p style=""text-align:center""><br><br> In the following trials, you will be asked to rate textures on each scale one-by-one. <br> You will be given opportunities to take breaks when you have completed each block of trials. There are six total blocks of trials. <br><br> Please click continue to begin the main task.<br><br><br> </div>","0","","","","","","",""
"","","","","","html-button-response","25","7723450","0.0-13.0","lycxx55pe7","3763","In the following trials, you will be asked to rate textures on the scale <b>Non-Random</b> versus <b>Random</b>. Please click 'Continue' when you are ready proceed.","0","","","","","","",""
"","","","","","html-slider-response","26","7729161","0.0-14.0","lycxx55pe7","NaN","<div style=""width:500px;"">
                                <p style=""font-size:50px; font-weight:bold;""
                                ></p>
                                <div style=""width:240px; margin: auto;"">
                                    <img src=""images/D57.png"" style= ""width:200px""alt=""img"">
                                </div>
                            </div>","200","","0","images/D57.png","","","","[""Non-random"",""Random""]"
"","","","","","html-slider-response","27","7734072","0.0-15.0","lycxx55pe7","NaN","<div style=""width:500px;"">
                                <p style=""font-size:50px; font-weight:bold;""
                                ></p>
                                <div style=""width:240px; margin: auto;"">
                                    <img src=""images/D37.png"" style= ""width:200px""alt=""img"">
                                </div>
                            </div>","106","","0","images/D37.png","","","","[""Non-random"",""Random""]"
"","","","","","html-slider-response","28","7737057","0.0-16.0","lycxx55pe7","NaN","<div style=""width:500px;"">
                                <p style=""font-size:50px; font-weight:bold;""
                                ></p>
                                <div style=""width:240px; margin: auto;"">
                                    <img src=""images/D85.png"" style= ""width:200px""alt=""img"">
                                </div>
                            </div>","-116","","0","images/D85.png","","","","[""Non-random"",""Random""]"
"","","","","","html-slider-response","29","7739296","0.0-17.0","lycxx55pe7","NaN","<div style=""width:500px;"">
                                <p style=""font-size:50px; font-weight:bold;""
                                ></p>
                                <div style=""width:240px; margin: auto;"">
                                    <img src=""images/D34.png"" style= ""width:200px""alt=""img"">
                                </div>
                            </div>","-200","","0","images/D34.png","","","","[""Non-random"",""Random""]"
"","","","","","html-slider-response","30","7741821","0.0-18.0","lycxx55pe7","NaN","<div style=""width:500px;"">
                                <p style=""font-size:50px; font-weight:bold;""
                                ></p>
                                <div style=""width:240px; margin: auto;"">
                                    <img src=""images/D55.png"" style= ""width:200px""alt=""img"">
                                </div>
                            </div>","-92","","0","images/D55.png","","","","[""Non-random"",""Random""]"
"","","","","","html-slider-response","31","7744641","0.0-19.0","lycxx55pe7","NaN","<div style=""width:500px;"">
                                <p style=""font-size:50px; font-weight:bold;""
                                ></p>
                                <div style=""width:240px; margin: auto;"">
                                    <img src=""images/D3.png"" style= ""width:200px""alt=""img"">
                                </div>
                            </div>","114","","0","images/D3.png","","","","[""Non-random"",""Random""]"
"","","","","","html-slider-response","32","7747077","0.0-20.0","lycxx55pe7","NaN","<div style=""width:500px;"">
                                <p style=""font-size:50px; font-weight:bold;""
                                ></p>
                                <div style=""width:240px; margin: auto;"">
                                    <img src=""images/D78.png"" style= ""width:200px""alt=""img"">
                                </div>
                            </div>","106","","0","images/D78.png","","","","[""Non-random"",""Random""]"
"","","","","","html-slider-response","33","7749127","0.0-21.0","lycxx55pe7","NaN","<div style=""width:500px;"">
                                <p style=""font-size:50px; font-weight:bold;""
                                ></p>
                                <div style=""width:240px; margin: auto;"">
                                    <img src=""images/D20.png"" style= ""width:200px""alt=""img"">
                                </div>
                            </div>","-200","","0","images/D20.png","","","","[""Non-random"",""Random""]"
"","","","","","html-slider-response","34","7751209","0.0-22.0","lycxx55pe7","NaN","<div style=""width:500px;"">
                                <p style=""font-size:50px; font-weight:bold;""
                                ></p>
                                <div style=""width:240px; margin: auto;"">
                                    <img src=""images/D49.png"" style= ""width:200px""alt=""img"">
                                </div>
                            </div>","-200","","0","images/D49.png","","","","[""Non-random"",""Random""]"
"","","","","","html-slider-response","35","7753415","0.0-23.0","lycxx55pe7","NaN","<div style=""width:500px;"">
                                <p style=""font-size:50px; font-weight:bold;""
                                ></p>
                                <div style=""width:240px; margin: auto;"">
                                    <img src=""images/D35.png"" style= ""width:200px""alt=""img"">
                                </div>
                            </div>","-200","","0","images/D35.png","","","","[""Non-random"",""Random""]"
"","","","","","html-slider-response","36","7755613","0.0-24.0","lycxx55pe7","NaN","<div style=""width:500px;"">
                                <p style=""font-size:50px; font-weight:bold;""
                                ></p>
                                <div style=""width:240px; margin: auto;"">
                                    <img src=""images/D96.png"" style= ""width:200px""alt=""img"">
                                </div>
                            </div>","-200","","0","images/D96.png","","","","[""Non-random"",""Random""]"
"","","","","","html-slider-response","37","7760242","0.0-25.0","lycxx55pe7","NaN","<div style=""width:500px;"">
                                <p style=""font-size:50px; font-weight:bold;""
                                ></p>
                                <div style=""width:240px; margin: auto;"">
                                    <img src=""images/D74.png"" style= ""width:200px""alt=""img"">
                                </div>
                            </div>","200","","0","images/D74.png","","","","[""Non-random"",""Random""]"
"","","","","","html-slider-response","38","7762361","0.0-26.0","lycxx55pe7","NaN","<div style=""width:500px;"">
                                <p style=""font-size:50px; font-weight:bold;""
                                ></p>
                                <div style=""width:240px; margin: auto;"">
                                    <img src=""images/D47.png"" style= ""width:200px""alt=""img"">
                                </div>
                            </div>","170","","0","images/D47.png","","","","[""Non-random"",""Random""]"
"","","","","","html-slider-response","39","7765107","0.0-27.0","lycxx55pe7","NaN","<div style=""width:500px;"">
                                <p style=""font-size:50px; font-weight:bold;""
                                ></p>
                                <div style=""width:240px; margin: auto;"">
                                    <img src=""images/D21.png"" style= ""width:200px""alt=""img"">
                                </div>
                            </div>","200","","0","images/D21.png","","","","[""Non-random"",""Random""]"
"","","","","","html-slider-response","40","7767527","0.0-28.0","lycxx55pe7","NaN","<div style=""width:500px;"">
                                <p style=""font-size:50px; font-weight:bold;""
                                ></p>
                                <div style=""width:240px; margin: auto;"">
                                    <img src=""images/D104.png"" style= ""width:200px""alt=""img"">
                                </div>
                            </div>","-200","","0","images/D104.png","","","","[""Non-random"",""Random""]"
"","","","","","html-slider-response","41","7769298","0.0-29.0","lycxx55pe7","NaN","<div style=""width:500px;"">
                                <p style=""font-size:50px; font-weight:bold;""
                                ></p>
                                <div style=""width:240px; margin: auto;"">
                                    <img src=""images/D14.png"" style= ""width:200px""alt=""img"">
                                </div>
                            </div>","-200","","0","images/D14.png","","","","[""Non-random"",""Random""]"
"","","","","","html-slider-response","42","7772144","0.0-30.0","lycxx55pe7","NaN","<div style=""width:500px;"">
                                <p style=""font-size:50px; font-weight:bold;""
                                ></p>
                                <div style=""width:240px; margin: auto;"">
                                    <img src=""images/D9.png"" style= ""width:200px""alt=""img"">
                                </div>
                            </div>","-200","","0","images/D9.png","","","","[""Non-random"",""Random""]"
"","","","","","html-slider-response","43","7774578","0.0-31.0","lycxx55pe7","NaN","<div style=""width:500px;"">
                                <p style=""font-size:50px; font-weight:bold;""
                                ></p>
                                <div style=""width:240px; margin: auto;"">
                                    <img src=""images/D22.png"" style= ""width:200px""alt=""img"">
                                </div>
                            </div>","-200","","0","images/D22.png","","","","[""Non-random"",""Random""]"
"","","","","","html-slider-response","44","7777646","0.0-32.0","lycxx55pe7","NaN","<div style=""width:500px;"">
                                <p style=""font-size:50px; font-weight:bold;""
                                ></p>
                                <div style=""width:240px; margin: auto;"">
                                    <img src=""images/D24.png"" style= ""width:200px""alt=""img"">
                                </div>
                            </div>","200","","0","images/D24.png","","","","[""Non-random"",""Random""]"
"","","","","","html-slider-response","45","7779801","0.0-33.0","lycxx55pe7","NaN","<div style=""width:500px;"">
                                <p style=""font-size:50px; font-weight:bold;""
                                ></p>
                                <div style=""width:240px; margin: auto;"">
                                    <img src=""images/D56.png"" style= ""width:200px""alt=""img"">
                                </div>
                            </div>","122","","0","images/D56.png","","","","[""Non-random"",""Random""]"
"","","","","","html-slider-response","46","7783220","0.0-34.0","lycxx55pe7","NaN","<div style=""width:500px;"">
                                <p style=""font-size:50px; font-weight:bold;""
                                ></p>
                                <div style=""width:240px; margin: auto;"">
                                    <img src=""images/D65.png"" style= ""width:200px""alt=""img"">
                                </div>
                            </div>","81","","0","images/D65.png","","","","[""Non-random"",""Random""]"
"","","","","","html-slider-response","47","7785903","0.0-35.0","lycxx55pe7","NaN","<div style=""width:500px;"">
                                <p style=""font-size:50px; font-weight:bold;""
                                ></p>
                                <div style=""width:240px; margin: auto;"">
                                    <img src=""images/D11.png"" style= ""width:200px""alt=""img"">
                                </div>
                            </div>","-200","","0","images/D11.png","","","","[""Non-random"",""Random""]"
"","","","","","html-slider-response","48","7788207","0.0-36.0","lycxx55pe7","NaN","<div style=""width:500px;"">
                                <p style=""font-size:50px; font-weight:bold;""
                                ></p>
                                <div style=""width:240px; margin: auto;"">
                                    <img src=""images/D87.png"" style= ""width:200px""alt=""img"">
                                </div>
                            </div>","145","","0","images/D87.png","","","","[""Non-random"",""Random""]"
"","","","","","html-slider-response","49","7790191","0.0-37.0","lycxx55pe7","NaN","<div style=""width:500px;"">
                                <p style=""font-size:50px; font-weight:bold;""
                                ></p>
                                <div style=""width:240px; margin: auto;"">
                                    <img src=""images/D36.png"" style= ""width:200px""alt=""img"">
                                </div>
                            </div>","200","","0","images/D36.png","","","","[""Non-random"",""Random""]"
"","","","","","html-slider-response","50","7792381","0.0-38.0","lycxx55pe7","NaN","<div style=""width:500px;"">
                                <p style=""font-size:50px; font-weight:bold;""
                                ></p>
                                <div style=""width:240px; margin: auto;"">
                                    <img src=""images/D101.png"" style= ""width:200px""alt=""img"">
                                </div>
                            </div>","-200","","0","images/D101.png","","","","[""Non-random"",""Random""]"
"","","","","","html-slider-response","51","7794341","0.0-39.0","lycxx55pe7","NaN","<div style=""width:500px;"">
                                <p style=""font-size:50px; font-weight:bold;""
                                ></p>
                                <div style=""width:240px; margin: auto;"">
                                    <img src=""images/D18.png"" style= ""width:200px""alt=""img"">
                                </div>
                            </div>","-200","","0","images/D18.png","","","","[""Non-random"",""Random""]"
"","","","","","html-slider-response","52","7797171","0.0-40.0","lycxx55pe7","NaN","<div style=""width:500px;"">
                                <p style=""font-size:50px; font-weight:bold;""
                                ></p>
                                <div style=""width:240px; margin: auto;"">
                                    <img src=""images/D105.png"" style= ""width:200px""alt=""img"">
                                </div>
                            </div>","200","","0","images/D105.png","","","","[""Non-random"",""Random""]"
"","","","","","html-slider-response","53","7799122","0.0-41.0","lycxx55pe7","NaN","<div style=""width:500px;"">
                                <p style=""font-size:50px; font-weight:bold;""
                                ></p>
                                <div style=""width:240px; margin: auto;"">
                                    <img src=""images/D83.png"" style= ""width:200px""alt=""img"">
                                </div>
                            </div>","-200","","0","images/D83.png","","","","[""Non-random"",""Random""]"
"","","","","","html-slider-response","54","7800982","0.0-42.0","lycxx55pe7","NaN","<div style=""width:500px;"">
                                <p style=""font-size:50px; font-weight:bold;""
                                ></p>
                                <div style=""width:240px; margin: auto;"">
                                    <img src=""images/D81.png"" style= ""width:200px""alt=""img"">
                                </div>
                            </div>","200","","0","images/D81.png","","","","[""Non-random"",""Random""]"
"","","","","","html-slider-response","55","7802755","0.0-43.0","lycxx55pe7","NaN","<div style=""width:500px;"">
                                <p style=""font-size:50px; font-weight:bold;""
                                ></p>
                                <div style=""width:240px; margin: auto;"">
                                    <img src=""images/D80.png"" style= ""width:200px""alt=""img"">
                                </div>
                            </div>","-200","","0","images/D80.png","","","","[""Non-random"",""Random""]"
"","","","","","html-slider-response","56","7804805","0.0-44.0","lycxx55pe7","NaN","<div style=""width:500px;"">
                                <p style=""font-size:50px; font-weight:bold;""
                                ></p>
                                <div style=""width:240px; margin: auto;"">
                                    <img src=""images/D103.png"" style= ""width:200px""alt=""img"">
                                </div>
                            </div>","200","","0","images/D103.png","","","","[""Non-random"",""Random""]"
"","","","","","html-slider-response","57","7806714","0.0-45.0","lycxx55pe7","NaN","<div style=""width:500px;"">
                                <p style=""font-size:50px; font-weight:bold;""
                                ></p>
                                <div style=""width:240px; margin: auto;"">
                                    <img src=""images/D95.png"" style= ""width:200px""alt=""img"">
                                </div>
                            </div>","-200","","0","images/D95.png","","","","[""Non-random"",""Random""]"
"","","","","","html-slider-response","58","7808198","0.0-46.0","lycxx55pe7","NaN","<div style=""width:500px;"">
                                <p style=""font-size:50px; font-weight:bold;""
                                ></p>
                                <div style=""width:240px; margin: auto;"">
                                    <img src=""images/D1.png"" style= ""width:200px""alt=""img"">
                                </div>
                            </div>","-200","","0","images/D1.png","","","","[""Non-random"",""Random""]"
"","","","","","html-slider-response","59","7810076","0.0-47.0","lycxx55pe7","NaN","<div style=""width:500px;"">
                                <p style=""font-size:50px; font-weight:bold;""
                                ></p>
                                <div style=""width:240px; margin: auto;"">
                                    <img src=""images/D64.png"" style= ""width:200px""alt=""img"">
                                </div>
                            </div>","-200","","0","images/D64.png","","","","[""Non-random"",""Random""]"
"","","","","","html-slider-response","60","7812397","0.0-48.0","lycxx55pe7","NaN","<div style=""width:500px;"">
                                <p style=""font-size:50px; font-weight:bold;""
                                ></p>
                                <div style=""width:240px; margin: auto;"">
                                    <img src=""images/D29.png"" style= ""width:200px""alt=""img"">
                                </div>
                            </div>","200","","0","images/D29.png","","","","[""Non-random"",""Random""]"
"","","","","","html-slider-response","61","7814997","0.0-49.0","lycxx55pe7","NaN","<div style=""width:500px;"">
                                <p style=""font-size:50px; font-weight:bold;""
                                ></p>
                                <div style=""width:240px; margin: auto;"">
                                    <img src=""images/D48.png"" style= ""width:200px""alt=""img"">
                                </div>
                            </div>","200","","0","images/D48.png","","","","[""Non-random"",""Random""]"
"","","","","","html-slider-response","62","7817113","0.0-50.0","lycxx55pe7","NaN","<div style=""width:500px;"">
                                <p style=""font-size:50px; font-weight:bold;""
                                ></p>
                                <div style=""width:240px; margin: auto;"">
                                    <img src=""images/D32.png"" style= ""width:200px""alt=""img"">
                                </div>
                            </div>","200","","0","images/D32.png","","","","[""Non-random"",""Random""]"
"","","","","","html-slider-response","63","7818965","0.0-51.0","lycxx55pe7","NaN","<div style=""width:500px;"">
                                <p style=""font-size:50px; font-weight:bold;""
                                ></p>
                                <div style=""width:240px; margin: auto;"">
                                    <img src=""images/D26.png"" style= ""width:200px""alt=""img"">
                                </div>
                            </div>","-200","","0","images/D26.png","","","","[""Non-random"",""Random""]"
"","","","","","html-slider-response","64","7820926","0.0-52.0","lycxx55pe7","NaN","<div style=""width:500px;"">
                                <p style=""font-size:50px; font-weight:bold;""
                                ></p>
                                <div style=""width:240px; margin: auto;"">
                                    <img src=""images/D68.png"" style= ""width:200px""alt=""img"">
                                </div>
                            </div>","200","","0","images/D68.png","","","","[""Non-random"",""Random""]"
"","","","","","html-slider-response","65","7823304","0.0-53.0","lycxx55pe7","NaN","<div style=""width:500px;"">
                                <p style=""font-size:50px; font-weight:bold;""
                                ></p>
                                <div style=""width:240px; margin: auto;"">
                                    <img src=""images/D6.png"" style= ""width:200px""alt=""img"">
                                </div>
                            </div>","200","","0","images/D6.png","","","","[""Non-random"",""Random""]"
"","","","","","html-slider-response","66","7825074","0.0-54.0","lycxx55pe7","NaN","<div style=""width:500px;"">
                                <p style=""font-size:50px; font-weight:bold;""
                                ></p>
                                <div style=""width:240px; margin: auto;"">
                                    <img src=""images/D8.png"" style= ""width:200px""alt=""img"">
                                </div>
                            </div>","150","","0","images/D8.png","","","","[""Non-random"",""Random""]"
"","","","","","html-slider-response","67","7827131","0.0-55.0","lycxx55pe7","NaN","<div style=""width:500px;"">
                                <p style=""font-size:50px; font-weight:bold;""
                                ></p>
                                <div style=""width:240px; margin: auto;"">
                                    <img src=""images/D19.png"" style= ""width:200px""alt=""img"">
                                </div>
                            </div>","189","","0","images/D19.png","","","","[""Non-random"",""Random""]"
"","","","","","html-slider-response","68","7829830","0.0-56.0","lycxx55pe7","NaN","<div style=""width:500px;"">
                                <p style=""font-size:50px; font-weight:bold;""
                                ></p>
                                <div style=""width:240px; margin: auto;"">
                                    <img src=""images/D82.png"" style= ""width:200px""alt=""img"">
                                </div>
                            </div>","200","","0","images/D82.png","","","","[""Non-random"",""Random""]"
"","","","","","html-slider-response","69","7831946","0.0-57.0","lycxx55pe7","NaN","<div style=""width:500px;"">
                                <p style=""font-size:50px; font-weight:bold;""
                                ></p>
                                <div style=""width:240px; margin: auto;"">
                                    <img src=""images/D46.png"" style= ""width:200px""alt=""img"">
                                </div>
                            </div>","200","","0","images/D46.png","","","","[""Non-random"",""Random""]"
"","","","","","html-slider-response","70","7833774","0.0-58.0","lycxx55pe7","NaN","<div style=""width:500px;"">
                                <p style=""font-size:50px; font-weight:bold;""
                                ></p>
                                <div style=""width:240px; margin: auto;"">
                                    <img src=""images/D79.png"" style= ""width:200px""alt=""img"">
                                </div>
                            </div>","162","","0","images/D79.png","","","","[""Non-random"",""Random""]"
"","","","","","html-slider-response","71","7835620","0.0-59.0","lycxx55pe7","NaN","<div style=""width:500px;"">
                                <p style=""font-size:50px; font-weight:bold;""
                                ></p>
                                <div style=""width:240px; margin: auto;"">
                                    <img src=""images/D25.png"" style= ""width:200px""alt=""img"">
                                </div>
                            </div>","-200","","0","images/D25.png","","","","[""Non-random"",""Random""]"
"","","","","","html-slider-response","72","7837488","0.0-60.0","lycxx55pe7","NaN","<div style=""width:500px;"">
                                <p style=""font-size:50px; font-weight:bold;""
                                ></p>
                                <div style=""width:240px; margin: auto;"">
                                    <img src=""images/D52.png"" style= ""width:200px""alt=""img"">
                                </div>
                            </div>","200","","0","images/D52.png","","","","[""Non-random"",""Random""]"
"","","","","","html-slider-response","73","7839227","0.0-61.0","lycxx55pe7","NaN","<div style=""width:500px;"">
                                <p style=""font-size:50px; font-weight:bold;""
                                ></p>
                                <div style=""width:240px; margin: auto;"">
                                    <img src=""images/D84.png"" style= ""width:200px""alt=""img"">
                                </div>
                            </div>","181","","0","images/D84.png","","","","[""Non-random"",""Random""]"
"","","","","","html-slider-response","74","7841104","0.0-62.0","lycxx55pe7","NaN","<div style=""width:500px;"">
                                <p style=""font-size:50px; font-weight:bold;""
                                ></p>
                                <div style=""width:240px; margin: auto;"">
                                    <img src=""images/D75.png"" style= ""width:200px""alt=""img"">
                                </div>
                            </div>","-200","","0","images/D75.png","","","","[""Non-random"",""Random""]"
"","","","","","html-slider-response","75","7843894","0.0-63.0","lycxx55pe7","NaN","<div style=""width:500px;"">
                                <p style=""font-size:50px; font-weight:bold;""
                                ></p>
                                <div style=""width:240px; margin: auto;"">
                                    <img src=""images/D92.png"" style= ""width:200px""alt=""img"">
                                </div>
                            </div>","162","","0","images/D92.png","","","","[""Non-random"",""Random""]"
"","","","","","html-slider-response","76","7845926","0.0-64.0","lycxx55pe7","NaN","<div style=""width:500px;"">
                                <p style=""font-size:50px; font-weight:bold;""
                                ></p>
                                <div style=""width:240px; margin: auto;"">
                                    <img src=""images/D66.png"" style= ""width:200px""alt=""img"">
                                </div>
                            </div>","-174","","0","images/D66.png","","","","[""Non-random"",""Random""]"
"","","","","","html-slider-response","77","7847689","0.0-65.0","lycxx55pe7","NaN","<div style=""width:500px;"">
                                <p style=""font-size:50px; font-weight:bold;""
                                ></p>
                                <div style=""width:240px; margin: auto;"">
                                    <img src=""images/D16.png"" style= ""width:200px""alt=""img"">
                                </div>
                            </div>","200","","0","images/D16.png","","","","[""Non-random"",""Random""]"
"","","","","","html-slider-response","78","7849747","0.0-66.0","lycxx55pe7","NaN","<div style=""width:500px;"">
                                <p style=""font-size:50px; font-weight:bold;""
                                ></p>
                                <div style=""width:240px; margin: auto;"">
                                    <img src=""images/D51.png"" style= ""width:200px""alt=""img"">
                                </div>
                            </div>","-170","","0","images/D51.png","","","","[""Non-random"",""Random""]"
"","","","","","html-slider-response","79","7851756","0.0-67.0","lycxx55pe7","NaN","<div style=""width:500px;"">
                                <p style=""font-size:50px; font-weight:bold;""
                                ></p>
                                <div style=""width:240px; margin: auto;"">
                                    <img src=""images/D94.png"" style= ""width:200px""alt=""img"">
                                </div>
                            </div>","-193","","0","images/D94.png","","","","[""Non-random"",""Random""]"
"","","","","","html-slider-response","80","7853698","0.0-68.0","lycxx55pe7","NaN","<div style=""width:500px;"">
                                <p style=""font-size:50px; font-weight:bold;""
                                ></p>
                                <div style=""width:240px; margin: auto;"">
                                    <img src=""images/D106.png"" style= ""width:200px""alt=""img"">
                                </div>
                            </div>","-198","","0","images/D106.png","","","","[""Non-random"",""Random""]"
"","","","","","html-slider-response","81","7855546","0.0-69.0","lycxx55pe7","NaN","<div style=""width:500px;"">
                                <p style=""font-size:50px; font-weight:bold;""
                                ></p>
                                <div style=""width:240px; margin: auto;"">
                                    <img src=""images/D76.png"" style= ""width:200px""alt=""img"">
                                </div>
                            </div>","189","","0","images/D76.png","","","","[""Non-random"",""Random""]"
"","","","","","html-slider-response","82","7857857","0.0-70.0","lycxx55pe7","NaN","<div style=""width:500px;"">
                                <p style=""font-size:50px; font-weight:bold;""
                                ></p>
                                <div style=""width:240px; margin: auto;"">
                                    <img src=""images/D17.png"" style= ""width:200px""alt=""img"">
                                </div>
                            </div>","177","","0","images/D17.png","","","","[""Non-random"",""Random""]"
"","","","","","html-slider-response","83","7859637","0.0-71.0","lycxx55pe7","NaN","<div style=""width:500px;"">
                                <p style=""font-size:50px; font-weight:bold;""
                                ></p>
                                <div style=""width:240px; margin: auto;"">
                                    <img src=""images/D4.png"" style= ""width:200px""alt=""img"">
                                </div>
                            </div>","200","","0","images/D4.png","","","","[""Non-random"",""Random""]"
"","","","","","html-slider-response","84","7862941","0.0-72.0","lycxx55pe7","NaN","<div style=""width:500px;"">
                                <p style=""font-size:50px; font-weight:bold;""
                                ></p>
                                <div style=""width:240px; margin: auto;"">
                                    <img src=""images/D111.png"" style= ""width:200px""alt=""img"">
                                </div>
                            </div>","200","","0","images/D111.png","","","","[""Non-random"",""Random""]"
"","","","","","html-slider-response","85","7864934","0.0-73.0","lycxx55pe7","NaN","<div style=""width:500px;"">
                                <p style=""font-size:50px; font-weight:bold;""
                                ></p>
                                <div style=""width:240px; margin: auto;"">
                                    <img src=""images/D77.png"" style= ""width:200px""alt=""img"">
                                </div>
                            </div>","182","","0","images/D77.png","","","","[""Non-random"",""Random""]"
"","","","","","html-slider-response","86","7866712","0.0-74.0","lycxx55pe7","NaN","<div style=""width:500px;"">
                                <p style=""font-size:50px; font-weight:bold;""
                                ></p>
                                <div style=""width:240px; margin: auto;"">
                                    <img src=""images/D102.png"" style= ""width:200px""alt=""img"">
                                </div>
                            </div>","189","","0","images/D102.png","","","","[""Non-random"",""Random""]"
"","","","","","html-slider-response","87","7869223","0.0-75.0","lycxx55pe7","NaN","<div style=""width:500px;"">
                                <p style=""font-size:50px; font-weight:bold;""
                                ></p>
                                <div style=""width:240px; margin: auto;"">
                                    <img src=""images/D53.png"" style= ""width:200px""alt=""img"">
                                </div>
                            </div>","200","","0","images/D53.png","","","","[""Non-random"",""Random""]"
"","","","","","html-button-response","88","7872787","0.0-76.0","lycxx55pe7","3063","You have completed the first block of trials out of six. Please click 'Continue' when you are ready proceed.","0","","","","","","",""
"","","","","","html-button-response","89","7874189","0.0-77.0","lycxx55pe7","1401","In the following trials, you will be asked to rate textures on the scale <b>Stripey</b> versus <b>Blobby</b>. Please click 'Continue' when you are ready proceed.","0","","","","","","",""
"","","","","","html-slider-response","90","7876587","0.0-78.0","lycxx55pe7","NaN","<div style=""width:500px;"">
                                <p style=""font-size:50px; font-weight:bold;""
                                ></p>
                                <div style=""width:240px; margin: auto;"">
                                    <img src=""images/D57.png"" style= ""width:200px""alt=""img"">
                                </div>
                            </div>","186","","0","images/D57.png","","","","[""Stripey"",""Blobby""]"
"","","","","","html-slider-response","91","7879391","0.0-79.0","lycxx55pe7","NaN","<div style=""width:500px;"">
                                <p style=""font-size:50px; font-weight:bold;""
                                ></p>
                                <div style=""width:240px; margin: auto;"">
                                    <img src=""images/D37.png"" style= ""width:200px""alt=""img"">
                                </div>
                            </div>","179","","0","images/D37.png","","","","[""Stripey"",""Blobby""]"
"","","","","","html-slider-response","92","7881136","0.0-80.0","lycxx55pe7","NaN","<div style=""width:500px;"">
                                <p style=""font-size:50px; font-weight:bold;""
                                ></p>
                                <div style=""width:240px; margin: auto;"">
                                    <img src=""images/D85.png"" style= ""width:200px""alt=""img"">
                                </div>
                            </div>","-200","","0","images/D85.png","","","","[""Stripey"",""Blobby""]"
"","","","","","html-slider-response","93","7883901","0.0-81.0","lycxx55pe7","NaN","<div style=""width:500px;"">
                                <p style=""font-size:50px; font-weight:bold;""
                                ></p>
                                <div style=""width:240px; margin: auto;"">
                                    <img src=""images/D34.png"" style= ""width:200px""alt=""img"">
                                </div>
                            </div>","200","","0","images/D34.png","","","","[""Stripey"",""Blobby""]"
"","","","","","html-slider-response","94","7886042","0.0-82.0","lycxx55pe7","NaN","<div style=""width:500px;"">
                                <p style=""font-size:50px; font-weight:bold;""
                                ></p>
                                <div style=""width:240px; margin: auto;"">
                                    <img src=""images/D55.png"" style= ""width:200px""alt=""img"">
                                </div>
                            </div>","-200","","0","images/D55.png","","","","[""Stripey"",""Blobby""]"
"","","","","","html-slider-response","95","7888494","0.0-83.0","lycxx55pe7","NaN","<div style=""width:500px;"">
                                <p style=""font-size:50px; font-weight:bold;""
                                ></p>
                                <div style=""width:240px; margin: auto;"">
                                    <img src=""images/D3.png"" style= ""width:200px""alt=""img"">
                                </div>
                            </div>","197","","0","images/D3.png","","","","[""Stripey"",""Blobby""]"
"","","","","","html-slider-response","96","7890395","0.0-84.0","lycxx55pe7","NaN","<div style=""width:500px;"">
                                <p style=""font-size:50px; font-weight:bold;""
                                ></p>
                                <div style=""width:240px; margin: auto;"">
                                    <img src=""images/D78.png"" style= ""width:200px""alt=""img"">
                                </div>
                            </div>","-177","","0","images/D78.png","","","","[""Stripey"",""Blobby""]"
"","","","","","html-slider-response","97","7892378","0.0-85.0","lycxx55pe7","NaN","<div style=""width:500px;"">
                                <p style=""font-size:50px; font-weight:bold;""
                                ></p>
                                <div style=""width:240px; margin: auto;"">
                                    <img src=""images/D20.png"" style= ""width:200px""alt=""img"">
                                </div>
                            </div>","-190","","0","images/D20.png","","","","[""Stripey"",""Blobby""]"
"","","","","","html-slider-response","98","7894355","0.0-86.0","lycxx55pe7","NaN","<div style=""width:500px;"">
                                <p style=""font-size:50px; font-weight:bold;""
                                ></p>
                                <div style=""width:240px; margin: auto;"">
                                    <img src=""images/D49.png"" style= ""width:200px""alt=""img"">
                                </div>
                            </div>","-200","","0","images/D49.png","","","","[""Stripey"",""Blobby""]"
"","","","","","html-slider-response","99","7898611","0.0-87.0","lycxx55pe7","NaN","<div style=""width:500px;"">
                                <p style=""font-size:50px; font-weight:bold;""
                                ></p>
                                <div style=""width:240px; margin: auto;"">
                                    <img src=""images/D35.png"" style= ""width:200px""alt=""img"">
                                </div>
                            </div>","194","","0","images/D35.png","","","","[""Stripey"",""Blobby""]"
"","","","","","html-slider-response","100","7900430","0.0-88.0","lycxx55pe7","NaN","<div style=""width:500px;"">
                                <p style=""font-size:50px; font-weight:bold;""
                                ></p>
                                <div style=""width:240px; margin: auto;"">
                                    <img src=""images/D96.png"" style= ""width:200px""alt=""img"">
                                </div>
                            </div>","-200","","0","images/D96.png","","","","[""Stripey"",""Blobby""]"
"","","","","","html-slider-response","101","7902622","0.0-89.0","lycxx55pe7","NaN","<div style=""width:500px;"">
                                <p style=""font-size:50px; font-weight:bold;""
                                ></p>
                                <div style=""width:240px; margin: auto;"">
                                    <img src=""images/D74.png"" style= ""width:200px""alt=""img"">
                                </div>
                            </div>","200","","0","images/D74.png","","","","[""Stripey"",""Blobby""]"
"","","","","","html-slider-response","102","7904546","0.0-90.0","lycxx55pe7","NaN","<div style=""width:500px;"">
                                <p style=""font-size:50px; font-weight:bold;""
                                ></p>
                                <div style=""width:240px; margin: auto;"">
                                    <img src=""images/D47.png"" style= ""width:200px""alt=""img"">
                                </div>
                            </div>","-200","","0","images/D47.png","","","","[""Stripey"",""Blobby""]"
"","","","","","html-slider-response","103","7906579","0.0-91.0","lycxx55pe7","NaN","<div style=""width:500px;"">
                                <p style=""font-size:50px; font-weight:bold;""
                                ></p>
                                <div style=""width:240px; margin: auto;"">
                                    <img src=""images/D21.png"" style= ""width:200px""alt=""img"">
                                </div>
                            </div>","-194","","0","images/D21.png","","","","[""Stripey"",""Blobby""]"
"","","","","","html-slider-response","104","7908419","0.0-92.0","lycxx55pe7","NaN","<div style=""width:500px;"">
                                <p style=""font-size:50px; font-weight:bold;""
                                ></p>
                                <div style=""width:240px; margin: auto;"">
                                    <img src=""images/D104.png"" style= ""width:200px""alt=""img"">
                                </div>
                            </div>","-200","","0","images/D104.png","","","","[""Stripey"",""Blobby""]"
"","","","","","html-slider-response","105","7910344","0.0-93.0","lycxx55pe7","NaN","<div style=""width:500px;"">
                                <p style=""font-size:50px; font-weight:bold;""
                                ></p>
                                <div style=""width:240px; margin: auto;"">
                                    <img src=""images/D14.png"" style= ""width:200px""alt=""img"">
                                </div>
                            </div>","-200","","0","images/D14.png","","","","[""Stripey"",""Blobby""]"
"","","","","","html-slider-response","106","7912558","0.0-94.0","lycxx55pe7","NaN","<div style=""width:500px;"">
                                <p style=""font-size:50px; font-weight:bold;""
                                ></p>
                                <div style=""width:240px; margin: auto;"">
                                    <img src=""images/D9.png"" style= ""width:200px""alt=""img"">
                                </div>
                            </div>","190","","0","images/D9.png","","","","[""Stripey"",""Blobby""]"
"","","","","","html-slider-response","107","7916584","0.0-95.0","lycxx55pe7","NaN","<div style=""width:500px;"">
                                <p style=""font-size:50px; font-weight:bold;""
                                ></p>
                                <div style=""width:240px; margin: auto;"">
                                    <img src=""images/D22.png"" style= ""width:200px""alt=""img"">
                                </div>
                            </div>","-198","","0","images/D22.png","","","","[""Stripey"",""Blobby""]"
"","","","","","html-slider-response","108","7918905","0.0-96.0","lycxx55pe7","NaN","<div style=""width:500px;"">
                                <p style=""font-size:50px; font-weight:bold;""
                                ></p>
                                <div style=""width:240px; margin: auto;"">
                                    <img src=""images/D24.png"" style= ""width:200px""alt=""img"">
                                </div>
                            </div>","190","","0","images/D24.png","","","","[""Stripey"",""Blobby""]"
"","","","","","html-slider-response","109","7920782","0.0-97.0","lycxx55pe7","NaN","<div style=""width:500px;"">
                                <p style=""font-size:50px; font-weight:bold;""
                                ></p>
                                <div style=""width:240px; margin: auto;"">
                                    <img src=""images/D56.png"" style= ""width:200px""alt=""img"">
                                </div>
                            </div>","-194","","0","images/D56.png","","","","[""Stripey"",""Blobby""]"
"","","","","","html-slider-response","110","7922802","0.0-98.0","lycxx55pe7","NaN","<div style=""width:500px;"">
                                <p style=""font-size:50px; font-weight:bold;""
                                ></p>
                                <div style=""width:240px; margin: auto;"">
                                    <img src=""images/D65.png"" style= ""width:200px""alt=""img"">
                                </div>
                            </div>","-172","","0","images/D65.png","","","","[""Stripey"",""Blobby""]"
"","","","","","html-slider-response","111","7924472","0.0-99.0","lycxx55pe7","NaN","<div style=""width:500px;"">
                                <p style=""font-size:50px; font-weight:bold;""
                                ></p>
                                <div style=""width:240px; margin: auto;"">
                                    <img src=""images/D11.png"" style= ""width:200px""alt=""img"">
                                </div>
                            </div>","-200","","0","images/D11.png","","","","[""Stripey"",""Blobby""]"
"","","","","","html-slider-response","112","7926522","0.0-100.0","lycxx55pe7","NaN","<div style=""width:500px;"">
                                <p style=""font-size:50px; font-weight:bold;""
                                ></p>
                                <div style=""width:240px; margin: auto;"">
                                    <img src=""images/D87.png"" style= ""width:200px""alt=""img"">
                                </div>
                            </div>","-178","","0","images/D87.png","","","","[""Stripey"",""Blobby""]"
"","","","","","html-slider-response","113","7928370","0.0-101.0","lycxx55pe7","NaN","<div style=""width:500px;"">
                                <p style=""font-size:50px; font-weight:bold;""
                                ></p>
                                <div style=""width:240px; margin: auto;"">
                                    <img src=""images/D36.png"" style= ""width:200px""alt=""img"">
                                </div>
                            </div>","-200","","0","images/D36.png","","","","[""Stripey"",""Blobby""]"
"","","","","","html-slider-response","114","7930450","0.0-102.0","lycxx55pe7","NaN","<div style=""width:500px;"">
                                <p style=""font-size:50px; font-weight:bold;""
                                ></p>
                                <div style=""width:240px; margin: auto;"">
                                    <img src=""images/D101.png"" style= ""width:200px""alt=""img"">
                                </div>
                            </div>","-188","","0","images/D101.png","","","","[""Stripey"",""Blobby""]"
"","","","","","html-slider-response","115","7933099","0.0-103.0","lycxx55pe7","NaN","<div style=""width:500px;"">
                                <p style=""font-size:50px; font-weight:bold;""
                                ></p>
                                <div style=""width:240px; margin: auto;"">
                                    <img src=""images/D18.png"" style= ""width:200px""alt=""img"">
                                </div>
                            </div>","-200","","0","images/D18.png","","","","[""Stripey"",""Blobby""]"
"","","","","","html-slider-response","116","7935115","0.0-104.0","lycxx55pe7","NaN","<div style=""width:500px;"">
                                <p style=""font-size:50px; font-weight:bold;""
                                ></p>
                                <div style=""width:240px; margin: auto;"">
                                    <img src=""images/D105.png"" style= ""width:200px""alt=""img"">
                                </div>
                            </div>","-200","","0","images/D105.png","","","","[""Stripey"",""Blobby""]"
"","","","","","html-slider-response","117","7937043","0.0-105.0","lycxx55pe7","NaN","<div style=""width:500px;"">
                                <p style=""font-size:50px; font-weight:bold;""
                                ></p>
                                <div style=""width:240px; margin: auto;"">
                                    <img src=""images/D83.png"" style= ""width:200px""alt=""img"">
                                </div>
                            </div>","-197","","0","images/D83.png","","","","[""Stripey"",""Blobby""]"
"","","","","","html-slider-response","118","7938872","0.0-106.0","lycxx55pe7","NaN","<div style=""width:500px;"">
                                <p style=""font-size:50px; font-weight:bold;""
                                ></p>
                                <div style=""width:240px; margin: auto;"">
                                    <img src=""images/D81.png"" style= ""width:200px""alt=""img"">
                                </div>
                            </div>","200","","0","images/D81.png","","","","[""Stripey"",""Blobby""]"
"","","","","","html-slider-response","119","7940831","0.0-107.0","lycxx55pe7","NaN","<div style=""width:500px;"">
                                <p style=""font-size:50px; font-weight:bold;""
                                ></p>
                                <div style=""width:240px; margin: auto;"">
                                    <img src=""images/D80.png"" style= ""width:200px""alt=""img"">
                                </div>
                            </div>","200","","0","images/D80.png","","","","[""Stripey"",""Blobby""]"
"","","","","","html-slider-response","120","7942922","0.0-108.0","lycxx55pe7","NaN","<div style=""width:500px;"">
                                <p style=""font-size:50px; font-weight:bold;""
                                ></p>
                                <div style=""width:240px; margin: auto;"">
                                    <img src=""images/D103.png"" style= ""width:200px""alt=""img"">
                                </div>
                            </div>","-196","","0","images/D103.png","","","","[""Stripey"",""Blobby""]"
"","","","","","html-slider-response","121","7944325","0.0-109.0","lycxx55pe7","NaN","<div style=""width:500px;"">
                                <p style=""font-size:50px; font-weight:bold;""
                                ></p>
                                <div style=""width:240px; margin: auto;"">
                                    <img src=""images/D95.png"" style= ""width:200px""alt=""img"">
                                </div>
                            </div>","-200","","0","images/D95.png","","","","[""Stripey"",""Blobby""]"
"","","","","","html-slider-response","122","7946029","0.0-110.0","lycxx55pe7","NaN","<div style=""width:500px;"">
                                <p style=""font-size:50px; font-weight:bold;""
                                ></p>
                                <div style=""width:240px; margin: auto;"">
                                    <img src=""images/D1.png"" style= ""width:200px""alt=""img"">
                                </div>
                            </div>","-184","","0","images/D1.png","","","","[""Stripey"",""Blobby""]"
"","","","","","html-slider-response","123","7947727","0.0-111.0","lycxx55pe7","NaN","<div style=""width:500px;"">
                                <p style=""font-size:50px; font-weight:bold;""
                                ></p>
                                <div style=""width:240px; margin: auto;"">
                                    <img src=""images/D64.png"" style= ""width:200px""alt=""img"">
                                </div>
                            </div>","-186","","0","images/D64.png","","","","[""Stripey"",""Blobby""]"
"","","","","","html-slider-response","124","7949949","0.0-112.0","lycxx55pe7","NaN","<div style=""width:500px;"">
                                <p style=""font-size:50px; font-weight:bold;""
                                ></p>
                                <div style=""width:240px; margin: auto;"">
                                    <img src=""images/D29.png"" style= ""width:200px""alt=""img"">
                                </div>
                            </div>","192","","0","images/D29.png","","","","[""Stripey"",""Blobby""]"
"","","","","","html-slider-response","125","7952147","0.0-113.0","lycxx55pe7","NaN","<div style=""width:500px;"">
                                <p style=""font-size:50px; font-weight:bold;""
                                ></p>
                                <div style=""width:240px; margin: auto;"">
                                    <img src=""images/D48.png"" style= ""width:200px""alt=""img"">
                                </div>
                            </div>","200","","0","images/D48.png","","","","[""Stripey"",""Blobby""]"
"","","","","","html-slider-response","126","7953917","0.0-114.0","lycxx55pe7","NaN","<div style=""width:500px;"">
                                <p style=""font-size:50px; font-weight:bold;""
                                ></p>
                                <div style=""width:240px; margin: auto;"">
                                    <img src=""images/D32.png"" style= ""width:200px""alt=""img"">
                                </div>
                            </div>","200","","0","images/D32.png","","","","[""Stripey"",""Blobby""]"
"","","","","","html-slider-response","127","7955615","0.0-115.0","lycxx55pe7","NaN","<div style=""width:500px;"">
                                <p style=""font-size:50px; font-weight:bold;""
                                ></p>
                                <div style=""width:240px; margin: auto;"">
                                    <img src=""images/D26.png"" style= ""width:200px""alt=""img"">
                                </div>
                            </div>","-200","","0","images/D26.png","","","","[""Stripey"",""Blobby""]"
"","","","","","html-slider-response","128","7957608","0.0-116.0","lycxx55pe7","NaN","<div style=""width:500px;"">
                                <p style=""font-size:50px; font-weight:bold;""
                                ></p>
                                <div style=""width:240px; margin: auto;"">
                                    <img src=""images/D68.png"" style= ""width:200px""alt=""img"">
                                </div>
                            </div>","-200","","0","images/D68.png","","","","[""Stripey"",""Blobby""]"
"","","","","","html-slider-response","129","7959378","0.0-117.0","lycxx55pe7","NaN","<div style=""width:500px;"">
                                <p style=""font-size:50px; font-weight:bold;""
                                ></p>
                                <div style=""width:240px; margin: auto;"">
                                    <img src=""images/D6.png"" style= ""width:200px""alt=""img"">
                                </div>
                            </div>","-200","","0","images/D6.png","","","","[""Stripey"",""Blobby""]"
"","","","","","html-slider-response","130","7961899","0.0-118.0","lycxx55pe7","NaN","<div style=""width:500px;"">
                                <p style=""font-size:50px; font-weight:bold;""
                                ></p>
                                <div style=""width:240px; margin: auto;"">
                                    <img src=""images/D8.png"" style= ""width:200px""alt=""img"">
                                </div>
                            </div>","16","","0","images/D8.png","","","","[""Stripey"",""Blobby""]"
"","","","","","html-slider-response","131","7966587","0.0-119.0","lycxx55pe7","NaN","<div style=""width:500px;"">
                                <p style=""font-size:50px; font-weight:bold;""
                                ></p>
                                <div style=""width:240px; margin: auto;"">
                                    <img src=""images/D19.png"" style= ""width:200px""alt=""img"">
                                </div>
                            </div>","-200","","0","images/D19.png","","","","[""Stripey"",""Blobby""]"
"","","","","","html-slider-response","132","7968750","0.0-120.0","lycxx55pe7","NaN","<div style=""width:500px;"">
                                <p style=""font-size:50px; font-weight:bold;""
                                ></p>
                                <div style=""width:240px; margin: auto;"">
                                    <img src=""images/D82.png"" style= ""width:200px""alt=""img"">
                                </div>
                            </div>","-200","","0","images/D82.png","","","","[""Stripey"",""Blobby""]"
"","","","","","html-slider-response","133","7970964","0.0-121.0","lycxx55pe7","NaN","<div style=""width:500px;"">
                                <p style=""font-size:50px; font-weight:bold;""
                                ></p>
                                <div style=""width:240px; margin: auto;"">
                                    <img src=""images/D46.png"" style= ""width:200px""alt=""img"">
                                </div>
                            </div>","-192","","0","images/D46.png","","","","[""Stripey"",""Blobby""]"
"","","","","","html-slider-response","134","7976326","0.0-122.0","lycxx55pe7","NaN","<div style=""width:500px;"">
                                <p style=""font-size:50px; font-weight:bold;""
                                ></p>
                                <div style=""width:240px; margin: auto;"">
                                    <img src=""images/D79.png"" style= ""width:200px""alt=""img"">
                                </div>
                            </div>","-200","","0","images/D79.png","","","","[""Stripey"",""Blobby""]"
"","","","","","html-slider-response","135","7978211","0.0-123.0","lycxx55pe7","NaN","<div style=""width:500px;"">
                                <p style=""font-size:50px; font-weight:bold;""
                                ></p>
                                <div style=""width:240px; margin: auto;"">
                                    <img src=""images/D25.png"" style= ""width:200px""alt=""img"">
                                </div>
                            </div>","-200","","0","images/D25.png","","","","[""Stripey"",""Blobby""]"
"","","","","","html-slider-response","136","7979984","0.0-124.0","lycxx55pe7","NaN","<div style=""width:500px;"">
                                <p style=""font-size:50px; font-weight:bold;""
                                ></p>
                                <div style=""width:240px; margin: auto;"">
                                    <img src=""images/D52.png"" style= ""width:200px""alt=""img"">
                                </div>
                            </div>","-200","","0","images/D52.png","","","","[""Stripey"",""Blobby""]"
"","","","","","html-slider-response","137","7982379","0.0-125.0","lycxx55pe7","NaN","<div style=""width:500px;"">
                                <p style=""font-size:50px; font-weight:bold;""
                                ></p>
                                <div style=""width:240px; margin: auto;"">
                                    <img src=""images/D84.png"" style= ""width:200px""alt=""img"">
                                </div>
                            </div>","200","","0","images/D84.png","","","","[""Stripey"",""Blobby""]"
"","","","","","html-slider-response","138","7984371","0.0-126.0","lycxx55pe7","NaN","<div style=""width:500px;"">
                                <p style=""font-size:50px; font-weight:bold;""
                                ></p>
                                <div style=""width:240px; margin: auto;"">
                                    <img src=""images/D75.png"" style= ""width:200px""alt=""img"">
                                </div>
                            </div>","200","","0","images/D75.png","","","","[""Stripey"",""Blobby""]"
"","","","","","html-slider-response","139","7986389","0.0-127.0","lycxx55pe7","NaN","<div style=""width:500px;"">
                                <p style=""font-size:50px; font-weight:bold;""
                                ></p>
                                <div style=""width:240px; margin: auto;"">
                                    <img src=""images/D92.png"" style= ""width:200px""alt=""img"">
                                </div>
                            </div>","200","","0","images/D92.png","","","","[""Stripey"",""Blobby""]"
"","","","","","html-slider-response","140","7988159","0.0-128.0","lycxx55pe7","NaN","<div style=""width:500px;"">
                                <p style=""font-size:50px; font-weight:bold;""
                                ></p>
                                <div style=""width:240px; margin: auto;"">
                                    <img src=""images/D66.png"" style= ""width:200px""alt=""img"">
                                </div>
                            </div>","200","","0","images/D66.png","","","","[""Stripey"",""Blobby""]"
"","","","","","html-slider-response","141","7989980","0.0-129.0","lycxx55pe7","NaN","<div style=""width:500px;"">
                                <p style=""font-size:50px; font-weight:bold;""
                                ></p>
                                <div style=""width:240px; margin: auto;"">
                                    <img src=""images/D16.png"" style= ""width:200px""alt=""img"">
                                </div>
                            </div>","-200","","0","images/D16.png","","","","[""Stripey"",""Blobby""]"
"","","","","","html-slider-response","142","7991554","0.0-130.0","lycxx55pe7","NaN","<div style=""width:500px;"">
                                <p style=""font-size:50px; font-weight:bold;""
                                ></p>
                                <div style=""width:240px; margin: auto;"">
                                    <img src=""images/D51.png"" style= ""width:200px""alt=""img"">
                                </div>
                            </div>","-200","","0","images/D51.png","","","","[""Stripey"",""Blobby""]"
"","","","","","html-slider-response","143","7993384","0.0-131.0","lycxx55pe7","NaN","<div style=""width:500px;"">
                                <p style=""font-size:50px; font-weight:bold;""
                                ></p>
                                <div style=""width:240px; margin: auto;"">
                                    <img src=""images/D94.png"" style= ""width:200px""alt=""img"">
                                </div>
                            </div>","-199","","0","images/D94.png","","","","[""Stripey"",""Blobby""]"
"","","","","","html-slider-response","144","7995385","0.0-132.0","lycxx55pe7","NaN","<div style=""width:500px;"">
                                <p style=""font-size:50px; font-weight:bold;""
                                ></p>
                                <div style=""width:240px; margin: auto;"">
                                    <img src=""images/D106.png"" style= ""width:200px""alt=""img"">
                                </div>
                            </div>","-194","","0","images/D106.png","","","","[""Stripey"",""Blobby""]"
"","","","","","html-slider-response","145","7997310","0.0-133.0","lycxx55pe7","NaN","<div style=""width:500px;"">
                                <p style=""font-size:50px; font-weight:bold;""
                                ></p>
                                <div style=""width:240px; margin: auto;"">
                                    <img src=""images/D76.png"" style= ""width:200px""alt=""img"">
                                </div>
                            </div>","-200","","0","images/D76.png","","","","[""Stripey"",""Blobby""]"
"","","","","","html-slider-response","146","7998900","0.0-134.0","lycxx55pe7","NaN","<div style=""width:500px;"">
                                <p style=""font-size:50px; font-weight:bold;""
                                ></p>
                                <div style=""width:240px; margin: auto;"">
                                    <img src=""images/D17.png"" style= ""width:200px""alt=""img"">
                                </div>
                            </div>","-200","","0","images/D17.png","","","","[""Stripey"",""Blobby""]"
"","","","","","html-slider-response","147","8000624","0.0-135.0","lycxx55pe7","NaN","<div style=""width:500px;"">
                                <p style=""font-size:50px; font-weight:bold;""
                                ></p>
                                <div style=""width:240px; margin: auto;"">
                                    <img src=""images/D4.png"" style= ""width:200px""alt=""img"">
                                </div>
                            </div>","200","","0","images/D4.png","","","","[""Stripey"",""Blobby""]"
"","","","","","html-slider-response","148","8002393","0.0-136.0","lycxx55pe7","NaN","<div style=""width:500px;"">
                                <p style=""font-size:50px; font-weight:bold;""
                                ></p>
                                <div style=""width:240px; margin: auto;"">
                                    <img src=""images/D111.png"" style= ""width:200px""alt=""img"">
                                </div>
                            </div>","200","","0","images/D111.png","","","","[""Stripey"",""Blobby""]"
"","","","","","html-slider-response","149","8004312","0.0-137.0","lycxx55pe7","NaN","<div style=""width:500px;"">
                                <p style=""font-size:50px; font-weight:bold;""
                                ></p>
                                <div style=""width:240px; margin: auto;"">
                                    <img src=""images/D77.png"" style= ""width:200px""alt=""img"">
                                </div>
                            </div>","200","","0","images/D77.png","","","","[""Stripey"",""Blobby""]"
"","","","","","html-slider-response","150","8005960","0.0-138.0","lycxx55pe7","NaN","<div style=""width:500px;"">
                                <p style=""font-size:50px; font-weight:bold;""
                                ></p>
                                <div style=""width:240px; margin: auto;"">
                                    <img src=""images/D102.png"" style= ""width:200px""alt=""img"">
                                </div>
                            </div>","-200","","0","images/D102.png","","","","[""Stripey"",""Blobby""]"
"","","","","","html-slider-response","151","8007723","0.0-139.0","lycxx55pe7","NaN","<div style=""width:500px;"">
                                <p style=""font-size:50px; font-weight:bold;""
                                ></p>
                                <div style=""width:240px; margin: auto;"">
                                    <img src=""images/D53.png"" style= ""width:200px""alt=""img"">
                                </div>
                            </div>","-200","","0","images/D53.png","","","","[""Stripey"",""Blobby""]"
"","","","","","html-button-response","152","8009164","0.0-140.0","lycxx55pe7","939","You have completed the second block of trials out of six. Please click 'Continue' when you are ready proceed.","0","","","","","","",""
"","","","","","html-button-response","153","8010263","0.0-141.0","lycxx55pe7","1099","In the following trials, you will be asked to rate textures on the scale <b>Soft</b> versus <b>Hard</b>. Please click 'Continue' when you are ready proceed.","0","","","","","","",""
"","","","","","html-slider-response","154","8012637","0.0-142.0","lycxx55pe7","NaN","<div style=""width:500px;"">
                                <p style=""font-size:50px; font-weight:bold;""
                                ></p>
                                <div style=""width:240px; margin: auto;"">
                                    <img src=""images/D82.png"" style= ""width:200px""alt=""img"">
                                </div>
                            </div>","200","","0","images/D82.png","","","","[""Hard"",""Soft""]"
"","","","","","html-slider-response","155","8015081","0.0-143.0","lycxx55pe7","NaN","<div style=""width:500px;"">
                                <p style=""font-size:50px; font-weight:bold;""
                                ></p>
                                <div style=""width:240px; margin: auto;"">
                                    <img src=""images/D56.png"" style= ""width:200px""alt=""img"">
                                </div>
                            </div>","-200","","0","images/D56.png","","","","[""Hard"",""Soft""]"
"","","","","","html-slider-response","156","8016957","0.0-144.0","lycxx55pe7","NaN","<div style=""width:500px;"">
                                <p style=""font-size:50px; font-weight:bold;""
                                ></p>
                                <div style=""width:240px; margin: auto;"">
                                    <img src=""images/D24.png"" style= ""width:200px""alt=""img"">
                                </div>
                            </div>","200","","0","images/D24.png","","","","[""Hard"",""Soft""]"
"","","","","","html-slider-response","157","8018736","0.0-145.0","lycxx55pe7","NaN","<div style=""width:500px;"">
                                <p style=""font-size:50px; font-weight:bold;""
                                ></p>
                                <div style=""width:240px; margin: auto;"">
                                    <img src=""images/D105.png"" style= ""width:200px""alt=""img"">
                                </div>
                            </div>","200","","0","images/D105.png","","","","[""Hard"",""Soft""]"
"","","","","","html-slider-response","158","8021852","0.0-146.0","lycxx55pe7","NaN","<div style=""width:500px;"">
                                <p style=""font-size:50px; font-weight:bold;""
                                ></p>
                                <div style=""width:240px; margin: auto;"">
                                    <img src=""images/D29.png"" style= ""width:200px""alt=""img"">
                                </div>
                            </div>","-200","","0","images/D29.png","","","","[""Hard"",""Soft""]"
"","","","","","html-slider-response","159","8023779","0.0-147.0","lycxx55pe7","NaN","<div style=""width:500px;"">
                                <p style=""font-size:50px; font-weight:bold;""
                                ></p>
                                <div style=""width:240px; margin: auto;"">
                                    <img src=""images/D74.png"" style= ""width:200px""alt=""img"">
                                </div>
                            </div>","200","","0","images/D74.png","","","","[""Hard"",""Soft""]"
"","","","","","html-slider-response","160","8025862","0.0-148.0","lycxx55pe7","NaN","<div style=""width:500px;"">
                                <p style=""font-size:50px; font-weight:bold;""
                                ></p>
                                <div style=""width:240px; margin: auto;"">
                                    <img src=""images/D95.png"" style= ""width:200px""alt=""img"">
                                </div>
                            </div>","-200","","0","images/D95.png","","","","[""Hard"",""Soft""]"
"","","","","","html-slider-response","161","8027766","0.0-149.0","lycxx55pe7","NaN","<div style=""width:500px;"">
                                <p style=""font-size:50px; font-weight:bold;""
                                ></p>
                                <div style=""width:240px; margin: auto;"">
                                    <img src=""images/D1.png"" style= ""width:200px""alt=""img"">
                                </div>
                            </div>","-200","","0","images/D1.png","","","","[""Hard"",""Soft""]"
"","","","","","html-slider-response","162","8030412","0.0-150.0","lycxx55pe7","NaN","<div style=""width:500px;"">
                                <p style=""font-size:50px; font-weight:bold;""
                                ></p>
                                <div style=""width:240px; margin: auto;"">
                                    <img src=""images/D3.png"" style= ""width:200px""alt=""img"">
                                </div>
                            </div>","200","","0","images/D3.png","","","","[""Hard"",""Soft""]"
"","","","","","html-slider-response","163","8032351","0.0-151.0","lycxx55pe7","NaN","<div style=""width:500px;"">
                                <p style=""font-size:50px; font-weight:bold;""
                                ></p>
                                <div style=""width:240px; margin: auto;"">
                                    <img src=""images/D6.png"" style= ""width:200px""alt=""img"">
                                </div>
                            </div>","200","","0","images/D6.png","","","","[""Hard"",""Soft""]"
"","","","","","html-slider-response","164","8034545","0.0-152.0","lycxx55pe7","NaN","<div style=""width:500px;"">
                                <p style=""font-size:50px; font-weight:bold;""
                                ></p>
                                <div style=""width:240px; margin: auto;"">
                                    <img src=""images/D96.png"" style= ""width:200px""alt=""img"">
                                </div>
                            </div>","-200","","0","images/D96.png","","","","[""Hard"",""Soft""]"
"","","","","","html-slider-response","165","8037817","0.0-153.0","lycxx55pe7","NaN","<div style=""width:500px;"">
                                <p style=""font-size:50px; font-weight:bold;""
                                ></p>
                                <div style=""width:240px; margin: auto;"">
                                    <img src=""images/D4.png"" style= ""width:200px""alt=""img"">
                                </div>
                            </div>","-200","","0","images/D4.png","","","","[""Hard"",""Soft""]"
"","","","","","html-slider-response","166","8039858","0.0-154.0","lycxx55pe7","NaN","<div style=""width:500px;"">
                                <p style=""font-size:50px; font-weight:bold;""
                                ></p>
                                <div style=""width:240px; margin: auto;"">
                                    <img src=""images/D46.png"" style= ""width:200px""alt=""img"">
                                </div>
                            </div>","200","","0","images/D46.png","","","","[""Hard"",""Soft""]"
"","","","","","html-slider-response","167","8042540","0.0-155.0","lycxx55pe7","NaN","<div style=""width:500px;"">
                                <p style=""font-size:50px; font-weight:bold;""
                                ></p>
                                <div style=""width:240px; margin: auto;"">
                                    <img src=""images/D9.png"" style= ""width:200px""alt=""img"">
                                </div>
                            </div>","-200","","0","images/D9.png","","","","[""Hard"",""Soft""]"
"","","","","","html-slider-response","168","8044309","0.0-156.0","lycxx55pe7","NaN","<div style=""width:500px;"">
                                <p style=""font-size:50px; font-weight:bold;""
                                ></p>
                                <div style=""width:240px; margin: auto;"">
                                    <img src=""images/D14.png"" style= ""width:200px""alt=""img"">
                                </div>
                            </div>","200","","0","images/D14.png","","","","[""Hard"",""Soft""]"
"","","","","","html-slider-response","169","8046196","0.0-157.0","lycxx55pe7","NaN","<div style=""width:500px;"">
                                <p style=""font-size:50px; font-weight:bold;""
                                ></p>
                                <div style=""width:240px; margin: auto;"">
                                    <img src=""images/D78.png"" style= ""width:200px""alt=""img"">
                                </div>
                            </div>","200","","0","images/D78.png","","","","[""Hard"",""Soft""]"
"","","","","","html-slider-response","170","8048327","0.0-158.0","lycxx55pe7","NaN","<div style=""width:500px;"">
                                <p style=""font-size:50px; font-weight:bold;""
                                ></p>
                                <div style=""width:240px; margin: auto;"">
                                    <img src=""images/D84.png"" style= ""width:200px""alt=""img"">
                                </div>
                            </div>","-200","","0","images/D84.png","","","","[""Hard"",""Soft""]"
"","","","","","html-slider-response","171","8050189","0.0-159.0","lycxx55pe7","NaN","<div style=""width:500px;"">
                                <p style=""font-size:50px; font-weight:bold;""
                                ></p>
                                <div style=""width:240px; margin: auto;"">
                                    <img src=""images/D32.png"" style= ""width:200px""alt=""img"">
                                </div>
                            </div>","-200","","0","images/D32.png","","","","[""Hard"",""Soft""]"
"","","","","","html-slider-response","172","8052673","0.0-160.0","lycxx55pe7","NaN","<div style=""width:500px;"">
                                <p style=""font-size:50px; font-weight:bold;""
                                ></p>
                                <div style=""width:240px; margin: auto;"">
                                    <img src=""images/D83.png"" style= ""width:200px""alt=""img"">
                                </div>
                            </div>","200","","0","images/D83.png","","","","[""Hard"",""Soft""]"
"","","","","","html-slider-response","173","8054476","0.0-161.0","lycxx55pe7","NaN","<div style=""width:500px;"">
                                <p style=""font-size:50px; font-weight:bold;""
                                ></p>
                                <div style=""width:240px; margin: auto;"">
                                    <img src=""images/D92.png"" style= ""width:200px""alt=""img"">
                                </div>
                            </div>","200","","0","images/D92.png","","","","[""Hard"",""Soft""]"
"","","","","","html-slider-response","174","8056249","0.0-162.0","lycxx55pe7","NaN","<div style=""width:500px;"">
                                <p style=""font-size:50px; font-weight:bold;""
                                ></p>
                                <div style=""width:240px; margin: auto;"">
                                    <img src=""images/D8.png"" style= ""width:200px""alt=""img"">
                                </div>
                            </div>","200","","0","images/D8.png","","","","[""Hard"",""Soft""]"
"","","","","","html-slider-response","175","8057791","0.0-163.0","lycxx55pe7","NaN","<div style=""width:500px;"">
                                <p style=""font-size:50px; font-weight:bold;""
                                ></p>
                                <div style=""width:240px; margin: auto;"">
                                    <img src=""images/D49.png"" style= ""width:200px""alt=""img"">
                                </div>
                            </div>","200","","0","images/D49.png","","","","[""Hard"",""Soft""]"
"","","","","","html-slider-response","176","8059389","0.0-164.0","lycxx55pe7","NaN","<div style=""width:500px;"">
                                <p style=""font-size:50px; font-weight:bold;""
                                ></p>
                                <div style=""width:240px; margin: auto;"">
                                    <img src=""images/D16.png"" style= ""width:200px""alt=""img"">
                                </div>
                            </div>","200","","0","images/D16.png","","","","[""Hard"",""Soft""]"
"","","","","","html-slider-response","177","8061004","0.0-165.0","lycxx55pe7","NaN","<div style=""width:500px;"">
                                <p style=""font-size:50px; font-weight:bold;""
                                ></p>
                                <div style=""width:240px; margin: auto;"">
                                    <img src=""images/D55.png"" style= ""width:200px""alt=""img"">
                                </div>
                            </div>","200","","0","images/D55.png","","","","[""Hard"",""Soft""]"
"","","","","","html-slider-response","178","8063159","0.0-166.0","lycxx55pe7","NaN","<div style=""width:500px;"">
                                <p style=""font-size:50px; font-weight:bold;""
                                ></p>
                                <div style=""width:240px; margin: auto;"">
                                    <img src=""images/D19.png"" style= ""width:200px""alt=""img"">
                                </div>
                            </div>","-200","","0","images/D19.png","","","","[""Hard"",""Soft""]"
"","","","","","html-slider-response","179","8064758","0.0-167.0","lycxx55pe7","NaN","<div style=""width:500px;"">
                                <p style=""font-size:50px; font-weight:bold;""
                                ></p>
                                <div style=""width:240px; margin: auto;"">
                                    <img src=""images/D51.png"" style= ""width:200px""alt=""img"">
                                </div>
                            </div>","200","","0","images/D51.png","","","","[""Hard"",""Soft""]"
"","","","","","html-slider-response","180","8066473","0.0-168.0","lycxx55pe7","NaN","<div style=""width:500px;"">
                                <p style=""font-size:50px; font-weight:bold;""
                                ></p>
                                <div style=""width:240px; margin: auto;"">
                                    <img src=""images/D102.png"" style= ""width:200px""alt=""img"">
                                </div>
                            </div>","200","","0","images/D102.png","","","","[""Hard"",""Soft""]"
"","","","","","html-slider-response","181","8068169","0.0-169.0","lycxx55pe7","NaN","<div style=""width:500px;"">
                                <p style=""font-size:50px; font-weight:bold;""
                                ></p>
                                <div style=""width:240px; margin: auto;"">
                                    <img src=""images/D25.png"" style= ""width:200px""alt=""img"">
                                </div>
                            </div>","-200","","0","images/D25.png","","","","[""Hard"",""Soft""]"
"","","","","","html-slider-response","182","8069857","0.0-170.0","lycxx55pe7","NaN","<div style=""width:500px;"">
                                <p style=""font-size:50px; font-weight:bold;""
                                ></p>
                                <div style=""width:240px; margin: auto;"">
                                    <img src=""images/D111.png"" style= ""width:200px""alt=""img"">
                                </div>
                            </div>","200","","0","images/D111.png","","","","[""Hard"",""Soft""]"
"","","","","","html-slider-response","183","8071515","0.0-171.0","lycxx55pe7","NaN","<div style=""width:500px;"">
                                <p style=""font-size:50px; font-weight:bold;""
                                ></p>
                                <div style=""width:240px; margin: auto;"">
                                    <img src=""images/D94.png"" style= ""width:200px""alt=""img"">
                                </div>
                            </div>","-200","","0","images/D94.png","","","","[""Hard"",""Soft""]"
"","","","","","html-slider-response","184","8073599","0.0-172.0","lycxx55pe7","NaN","<div style=""width:500px;"">
                                <p style=""font-size:50px; font-weight:bold;""
                                ></p>
                                <div style=""width:240px; margin: auto;"">
                                    <img src=""images/D64.png"" style= ""width:200px""alt=""img"">
                                </div>
                            </div>","200","","0","images/D64.png","","","","[""Hard"",""Soft""]"
"","","","","","html-slider-response","185","8075131","0.0-173.0","lycxx55pe7","NaN","<div style=""width:500px;"">
                                <p style=""font-size:50px; font-weight:bold;""
                                ></p>
                                <div style=""width:240px; margin: auto;"">
                                    <img src=""images/D36.png"" style= ""width:200px""alt=""img"">
                                </div>
                            </div>","200","","0","images/D36.png","","","","[""Hard"",""Soft""]"
"","","","","","html-slider-response","186","8077476","0.0-174.0","lycxx55pe7","NaN","<div style=""width:500px;"">
                                <p style=""font-size:50px; font-weight:bold;""
                                ></p>
                                <div style=""width:240px; margin: auto;"">
                                    <img src=""images/D48.png"" style= ""width:200px""alt=""img"">
                                </div>
                            </div>","200","","0","images/D48.png","","","","[""Hard"",""Soft""]"
"","","","","","html-slider-response","187","8079149","0.0-175.0","lycxx55pe7","NaN","<div style=""width:500px;"">
                                <p style=""font-size:50px; font-weight:bold;""
                                ></p>
                                <div style=""width:240px; margin: auto;"">
                                    <img src=""images/D26.png"" style= ""width:200px""alt=""img"">
                                </div>
                            </div>","-200","","0","images/D26.png","","","","[""Hard"",""Soft""]"
"","","","","","html-slider-response","188","8080832","0.0-176.0","lycxx55pe7","NaN","<div style=""width:500px;"">
                                <p style=""font-size:50px; font-weight:bold;""
                                ></p>
                                <div style=""width:240px; margin: auto;"">
                                    <img src=""images/D87.png"" style= ""width:200px""alt=""img"">
                                </div>
                            </div>","200","","0","images/D87.png","","","","[""Hard"",""Soft""]"
"","","","","","html-slider-response","189","8082749","0.0-177.0","lycxx55pe7","NaN","<div style=""width:500px;"">
                                <p style=""font-size:50px; font-weight:bold;""
                                ></p>
                                <div style=""width:240px; margin: auto;"">
                                    <img src=""images/D57.png"" style= ""width:200px""alt=""img"">
                                </div>
