"success","timeout","failed_images","failed_audio","failed_video","trial_type","trial_index","time_elapsed","internal_node_id","subject_id","rt","stimulus","response","question_order","slider_start","image_path","practiceTrial","practiceTrialNum","correct","slider_labels"
"true","false","[]","[]","[]","preload","0","691","0.0-0.0","nfqnfjue15","","","","","","","","","",""
"","","","","","html-button-response","1","2111","0.0-1.0","nfqnfjue15","1419","<div style='text-align:center; font-size:20px; line-height:25px; width: 1200px;'>
                Welcome to our experiment! <br>
                <br>At the bottom of this screen, you will see a button that says 'Begin Experiment.
                <br>Please only click that button when you are ready to complete the 25 minute experiment in one sitting. <br>
                <br> Once you click that button, it will not be possible to restart the experiment. <br><br>","0","","","","","","",""
"true","","","","","fullscreen","2","4896","0.0-2.0","nfqnfjue15","1773","","","","","","","","",""
"","","","","","survey-multi-select","3","25927","0.0-3.0","nfqnfjue15","21029","","{""Consent"":[""<strong>I consent</strong>""]}","[0]","","","","","",""
"","","","","","html-button-response","4","26963","0.0-4.0","nfqnfjue15","1034","Welcome! <p> This experiment involves two parts: demographic information, followed by the experimental task.<p> It will take about 25 minutes to complete both parts.","0","","","","","","",""
"","","","","","survey-text","5","33976","0.0-5.0","nfqnfjue15","7012","","{""Age"":""18"",""Gender"":""M"",""Race/ethnicity"":""ASIAN""}","","","","","","",""
"","","","","","html-slider-response","6","41735","0.0-6.0","nfqnfjue15","7757","
                <div style='text-align:center; height: auto; margin-left=-100px; margin-bottom: -20px; font-size:20px; line-height:5px; width: 1200px;'>
                    <br>During this experiment, you will see a series of textures, one at a time, like the ones below: 
                </div>
                    <br>
                    <br>
                    <img src=""anchoring_visual_textures.png"" alt=""img"" style=""max-width:1200px; margin-left: -10px;"">
                </div>
                <div style=""clear: both;""></div>
                </div>
                    <div style='text-align:center; margin-left=-100px; font-size:20px; line-height:20px; width: 1200px; margin-top: -50px;'>
                    
                    <br> For each texture, you will be asked to rate where you think it falls on each of the response scales with the following endpoints:
                    </div>
                            <div style=""text-align: center; width: 1400px; "">
                                <p style=""font-size:20px; line-height:5px; ""><b>Stripey</b> versus <b>Blobby</b></p>
                                <p style=""font-size:20px; line-height:5px; ""><b>Rectangular</b> versus <b>Rounded</b></p>
                                <p style=""font-size:20px;line-height:5px;""><b>Fine</b> versus <b>Coarse</b></p>
                                <p style=""font-size:20px;line-height:5px; ""><b>Smooth</b> versus <b>Rough</b></p>
                                <p style=""font-size:20px;line-height:5px; ""><b>Non-Random</b> versus <b>Random</b></p>
                                <p style=""font-size:20px;line-height:5px;""><b>Soft</b> versus <b>Hard</b></p>
                            </div>
                            <div style='text-align:center; font-size:20px; line-height:20px; width: 1400px;'>
                    
                    Each trial will include one texture and one response scale. You will be asked to make your rating by sliding the cursor along a slider response scale like the one below.
                    <br><br> Before beginning, please look at the textures and scales. For each scale, think about the texture you associate most with the left endpoint. When you see that texture for that response scale, please click near the left of the scale.
                    <br><br> Now, please think about the texture you associate most with the right endpoint of each scale. When you see that texture for that response scale, please click near the right of the scale. 
                    <br><br> If you think a texture is not strongly associated with either endpoint of the scale, please click near the midpoint of the scale. Please use the full range of the scale. 
                    <br><br> You will be asked to rate each texture for a given scale before moving on to the next scale.
                    <br><br> Please press the 'Continue' button for instructions on how to use the slider.                     <br><br>
                ","-200","","0","visual_textures_anchoring.png","true","","",""
"","","","","","html-button-response","7","42835","0.0-7.0","nfqnfjue15","1099","<div style=""width:1200px; margin-top:-150px;""><p style=""text-align:center; font-size:24px;"">To move the slider, click and drag your cursor to the location of the scale where you would like to make your rating and then let go. <br><br> When you let go of the slider, your response will be recorded and the next trial will begin. <br><br><br>
                We are interested in your initial impressions of each texture and scale, so please go with your first intuition. <br><br>
                Before you begin the experiment, there will be four training trials for you to practice using the scale. <br><br><br><br></div>
                <div style=""width:1200px;""><p style=""text-align:center; font-size:20px;"">When you are ready to start the training trials, please click ""Continue"".</p></div>","0","","","","","","",""
"","","","","","html-slider-response","8","44022","0.0-8.0-0.0","nfqnfjue15","NaN","<div style=""width:500px;"">
                                <p style=""font-size:25px;"">Please move the slider all the way to the <br> right endpoint of the scale</p>

                                </div>
                            </div>","-200","","0","","true","0","false",""
"","","","","","html-button-response","9","45205","0.0-8.0-1.0","nfqnfjue15","679","<p align='center'><b>Not quite!</b> The slider was not placed near the instructed locattion. Click on 'Continue' to try again. </p>","0","","","","","","",""
"","","","","","html-slider-response","10","46229","0.0-8.1-0.1","nfqnfjue15","NaN","<div style=""width:500px;"">
                                <p style=""font-size:25px;"">Please move the slider all the way to the <br> right endpoint of the scale</p>

                                </div>
                            </div>","200","","0","","true","0","true",""
"","","","","","html-button-response","11","47340","0.0-8.1-1.1","nfqnfjue15","610","<p align='center'><b>Good job!</b> Click on 'Continue' to proceed.</p>","0","","","","","","",""
"","","","","","html-slider-response","12","48624","0.0-9.0-0.0","nfqnfjue15","NaN","<div style=""width:500px;"">
                                <p style=""font-size:25px;"">Please move the slider all the way to the <br> left endpoint of the scale</p>

                                </div>
                            </div>","-200","","0","","true","1","true",""
"","","","","","html-button-response","13","49814","0.0-9.0-1.0","nfqnfjue15","690","<p align='center'><b>Good job!</b> Click on 'Continue' to proceed.</p>","0","","","","","","",""
"","","","","","html-slider-response","14","51098","0.0-10.0-0.0","nfqnfjue15","NaN","<div style=""width:500px;"">
                                <p style=""font-size:25px;"">Please move the slider halfway between the center and right endpoint of the scale</p>

                                </div>
                            </div>","0","","0","","true","2","false",""
"","","","","","html-button-response","15","52893","0.0-10.0-1.0","nfqnfjue15","1281","<p align='center'><b>Not quite!</b> The slider was not placed near the instructed locattion. Click on 'Continue' to try again. </p>","0","","","","","","",""
"","","","","","html-slider-response","16","57747","0.0-10.1-0.1","nfqnfjue15","NaN","<div style=""width:500px;"">
                                <p style=""font-size:25px;"">Please move the slider halfway between the center and right endpoint of the scale</p>

                                </div>
                            </div>","105","","0","","true","2","true",""
"","","","","","html-button-response","17","58875","0.0-10.1-1.1","nfqnfjue15","627","<p align='center'><b>Good job!</b> Click on 'Continue' to proceed.</p>","0","","","","","","",""
"","","","","","html-slider-response","18","60190","0.0-11.0-0.0","nfqnfjue15","NaN","<div style=""width:500px;"">
                                <p style=""font-size:25px;"">Please move the slider halfway between the center and left endpoint of the scale</p>

                                </div>
                            </div>","-109","","0","","true","3","true",""
"","","","","","html-button-response","19","61247","0.0-11.0-1.0","nfqnfjue15","551","<p align='center'><b>Good job!</b> Click on 'Continue' to proceed.</p>","0","","","","","","",""
"","","","","","html-button-response","20","61983","0.0-12.0","nfqnfjue15","735","<div style=""width:800px; margin-top:-300px;""><p style=""text-align:center; font-size:22px; line-height:25px;""""> Great job! You've completed the practice trials.</div>
                     <div style=""width:800px; margin-top:-20px;""><p style=""text-align:center""><br><br> In the following trials, you will be asked to rate textures on each scale one-by-one. <br> You will be given opportunities to take breaks when you have completed each block of trials. There are six total blocks of trials. <br><br> Please click continue to begin the main task.<br><br><br> </div>","0","","","","","","",""
"","","","","","html-button-response","21","62645","0.0-13.0","nfqnfjue15","661","In the following trials, you will be asked to rate textures on the scale <b>Soft</b> versus <b>Hard</b>. Please click 'Continue' when you are ready proceed.","0","","","","","","",""
"","","","","","html-slider-response","22","64171","0.0-14.0","nfqnfjue15","NaN","<div style=""width:500px;"">
                                <p style=""font-size:50px; font-weight:bold;""
                                ></p>
                                <div style=""width:240px; margin: auto;"">
                                    <img src=""images/D46.png"" style= ""width:200px""alt=""img"">
                                </div>
                            </div>","-200","","0","images/D46.png","","","","[""Hard"",""Soft""]"
"","","","","","html-slider-response","23","65734","0.0-15.0","nfqnfjue15","NaN","<div style=""width:500px;"">
                                <p style=""font-size:50px; font-weight:bold;""
                                ></p>
                                <div style=""width:240px; margin: auto;"">
                                    <img src=""images/D82.png"" style= ""width:200px""alt=""img"">
                                </div>
                            </div>","200","","0","images/D82.png","","","","[""Hard"",""Soft""]"
"","","","","","html-slider-response","24","67129","0.0-16.0","nfqnfjue15","NaN","<div style=""width:500px;"">
                                <p style=""font-size:50px; font-weight:bold;""
                                ></p>
                                <div style=""width:240px; margin: auto;"">
                                    <img src=""images/D56.png"" style= ""width:200px""alt=""img"">
                                </div>
                            </div>","-200","","0","images/D56.png","","","","[""Hard"",""Soft""]"
"","","","","","html-slider-response","25","68001","0.0-17.0","nfqnfjue15","NaN","<div style=""width:500px;"">
                                <p style=""font-size:50px; font-weight:bold;""
                                ></p>
                                <div style=""width:240px; margin: auto;"">
                                    <img src=""images/D3.png"" style= ""width:200px""alt=""img"">
                                </div>
                            </div>","-200","","0","images/D3.png","","","","[""Hard"",""Soft""]"
"","","","","","html-slider-response","26","69108","0.0-18.0","nfqnfjue15","NaN","<div style=""width:500px;"">
                                <p style=""font-size:50px; font-weight:bold;""
                                ></p>
                                <div style=""width:240px; margin: auto;"">
                                    <img src=""images/D103.png"" style= ""width:200px""alt=""img"">
                                </div>
                            </div>","198","","0","images/D103.png","","","","[""Hard"",""Soft""]"
"","","","","","html-slider-response","27","69949","0.0-19.0","nfqnfjue15","NaN","<div style=""width:500px;"">
                                <p style=""font-size:50px; font-weight:bold;""
                                ></p>
                                <div style=""width:240px; margin: auto;"">
                                    <img src=""images/D106.png"" style= ""width:200px""alt=""img"">
                                </div>
                            </div>","-200","","0","images/D106.png","","","","[""Hard"",""Soft""]"
"","","","","","html-slider-response","28","70899","0.0-20.0","nfqnfjue15","NaN","<div style=""width:500px;"">
                                <p style=""font-size:50px; font-weight:bold;""
                                ></p>
                                <div style=""width:240px; margin: auto;"">
                                    <img src=""images/D52.png"" style= ""width:200px""alt=""img"">
                                </div>
                            </div>","-200","","0","images/D52.png","","","","[""Hard"",""Soft""]"
"","","","","","html-slider-response","29","71833","0.0-21.0","nfqnfjue15","NaN","<div style=""width:500px;"">
                                <p style=""font-size:50px; font-weight:bold;""
                                ></p>
                                <div style=""width:240px; margin: auto;"">
                                    <img src=""images/D65.png"" style= ""width:200px""alt=""img"">
                                </div>
                            </div>","-200","","0","images/D65.png","","","","[""Hard"",""Soft""]"
"","","","","","html-slider-response","30","72620","0.0-22.0","nfqnfjue15","NaN","<div style=""width:500px;"">
                                <p style=""font-size:50px; font-weight:bold;""
                                ></p>
                                <div style=""width:240px; margin: auto;"">
                                    <img src=""images/D22.png"" style= ""width:200px""alt=""img"">
                                </div>
                            </div>","-200","","0","images/D22.png","","","","[""Hard"",""Soft""]"
"","","","","","html-slider-response","31","74456","0.0-23.0","nfqnfjue15","NaN","<div style=""width:500px;"">
                                <p style=""font-size:50px; font-weight:bold;""
                                ></p>
                                <div style=""width:240px; margin: auto;"">
                                    <img src=""images/D81.png"" style= ""width:200px""alt=""img"">
                                </div>
                            </div>","200","","0","images/D81.png","","","","[""Hard"",""Soft""]"
"","","","","","html-slider-response","32","76991","0.0-24.0","nfqnfjue15","NaN","<div style=""width:500px;"">
                                <p style=""font-size:50px; font-weight:bold;""
                                ></p>
                                <div style=""width:240px; margin: auto;"">
                                    <img src=""images/D20.png"" style= ""width:200px""alt=""img"">
                                </div>
                            </div>","95","","0","images/D20.png","","","","[""Hard"",""Soft""]"
"","","","","","html-slider-response","33","78516","0.0-25.0","nfqnfjue15","NaN","<div style=""width:500px;"">
                                <p style=""font-size:50px; font-weight:bold;""
                                ></p>
                                <div style=""width:240px; margin: auto;"">
                                    <img src=""images/D74.png"" style= ""width:200px""alt=""img"">
                                </div>
                            </div>","200","","0","images/D74.png","","","","[""Hard"",""Soft""]"
"","","","","","html-slider-response","34","79543","0.0-26.0","nfqnfjue15","NaN","<div style=""width:500px;"">
                                <p style=""font-size:50px; font-weight:bold;""
                                ></p>
                                <div style=""width:240px; margin: auto;"">
                                    <img src=""images/D51.png"" style= ""width:200px""alt=""img"">
                                </div>
                            </div>","-200","","0","images/D51.png","","","","[""Hard"",""Soft""]"
"","","","","","html-slider-response","35","80265","0.0-27.0","nfqnfjue15","NaN","<div style=""width:500px;"">
                                <p style=""font-size:50px; font-weight:bold;""
                                ></p>
                                <div style=""width:240px; margin: auto;"">
                                    <img src=""images/D4.png"" style= ""width:200px""alt=""img"">
                                </div>
                            </div>","-200","","0","images/D4.png","","","","[""Hard"",""Soft""]"
"","","","","","html-slider-response","36","81084","0.0-28.0","nfqnfjue15","NaN","<div style=""width:500px;"">
                                <p style=""font-size:50px; font-weight:bold;""
                                ></p>
                                <div style=""width:240px; margin: auto;"">
                                    <img src=""images/D68.png"" style= ""width:200px""alt=""img"">
                                </div>
                            </div>","-200","","0","images/D68.png","","","","[""Hard"",""Soft""]"
"","","","","","html-slider-response","37","82227","0.0-29.0","nfqnfjue15","NaN","<div style=""width:500px;"">
                                <p style=""font-size:50px; font-weight:bold;""
                                ></p>
                                <div style=""width:240px; margin: auto;"">
                                    <img src=""images/D1.png"" style= ""width:200px""alt=""img"">
                                </div>
                            </div>","-186","","0","images/D1.png","","","","[""Hard"",""Soft""]"
"","","","","","html-slider-response","38","82911","0.0-30.0","nfqnfjue15","NaN","<div style=""width:500px;"">
                                <p style=""font-size:50px; font-weight:bold;""
                                ></p>
                                <div style=""width:240px; margin: auto;"">
                                    <img src=""images/D85.png"" style= ""width:200px""alt=""img"">
                                </div>
                            </div>","-182","","0","images/D85.png","","","","[""Hard"",""Soft""]"
"","","","","","html-slider-response","39","83759","0.0-31.0","nfqnfjue15","NaN","<div style=""width:500px;"">
                                <p style=""font-size:50px; font-weight:bold;""
                                ></p>
                                <div style=""width:240px; margin: auto;"">
                                    <img src=""images/D66.png"" style= ""width:200px""alt=""img"">
                                </div>
                            </div>","-182","","0","images/D66.png","","","","[""Hard"",""Soft""]"
"","","","","","html-slider-response","40","84616","0.0-32.0","nfqnfjue15","NaN","<div style=""width:500px;"">
                                <p style=""font-size:50px; font-weight:bold;""
                                ></p>
                                <div style=""width:240px; margin: auto;"">
                                    <img src=""images/D25.png"" style= ""width:200px""alt=""img"">
                                </div>
                            </div>","-182","","0","images/D25.png","","","","[""Hard"",""Soft""]"
"","","","","","html-slider-response","41","85590","0.0-33.0","nfqnfjue15","NaN","<div style=""width:500px;"">
                                <p style=""font-size:50px; font-weight:bold;""
                                ></p>
                                <div style=""width:240px; margin: auto;"">
                                    <img src=""images/D36.png"" style= ""width:200px""alt=""img"">
                                </div>
                            </div>","177","","0","images/D36.png","","","","[""Hard"",""Soft""]"
"","","","","","html-slider-response","42","86398","0.0-34.0","nfqnfjue15","NaN","<div style=""width:500px;"">
                                <p style=""font-size:50px; font-weight:bold;""
                                ></p>
                                <div style=""width:240px; margin: auto;"">
                                    <img src=""images/D37.png"" style= ""width:200px""alt=""img"">
                                </div>
                            </div>","177","","0","images/D37.png","","","","[""Hard"",""Soft""]"
"","","","","","html-slider-response","43","87403","0.0-35.0","nfqnfjue15","NaN","<div style=""width:500px;"">
                                <p style=""font-size:50px; font-weight:bold;""
                                ></p>
                                <div style=""width:240px; margin: auto;"">
                                    <img src=""images/D95.png"" style= ""width:200px""alt=""img"">
                                </div>
                            </div>","-196","","0","images/D95.png","","","","[""Hard"",""Soft""]"
"","","","","","html-slider-response","44","88141","0.0-36.0","nfqnfjue15","NaN","<div style=""width:500px;"">
                                <p style=""font-size:50px; font-weight:bold;""
                                ></p>
                                <div style=""width:240px; margin: auto;"">
                                    <img src=""images/D75.png"" style= ""width:200px""alt=""img"">
                                </div>
                            </div>","-196","","0","images/D75.png","","","","[""Hard"",""Soft""]"
"","","","","","html-slider-response","45","88832","0.0-37.0","nfqnfjue15","NaN","<div style=""width:500px;"">
                                <p style=""font-size:50px; font-weight:bold;""
                                ></p>
                                <div style=""width:240px; margin: auto;"">
                                    <img src=""images/D48.png"" style= ""width:200px""alt=""img"">
                                </div>
                            </div>","-196","","0","images/D48.png","","","","[""Hard"",""Soft""]"
"","","","","","html-slider-response","46","89562","0.0-38.0","nfqnfjue15","NaN","<div style=""width:500px;"">
                                <p style=""font-size:50px; font-weight:bold;""
                                ></p>
                                <div style=""width:240px; margin: auto;"">
                                    <img src=""images/D8.png"" style= ""width:200px""alt=""img"">
                                </div>
                            </div>","-196","","0","images/D8.png","","","","[""Hard"",""Soft""]"
"","","","","","html-slider-response","47","90262","0.0-39.0","nfqnfjue15","NaN","<div style=""width:500px;"">
                                <p style=""font-size:50px; font-weight:bold;""
                                ></p>
                                <div style=""width:240px; margin: auto;"">
                                    <img src=""images/D11.png"" style= ""width:200px""alt=""img"">
                                </div>
                            </div>","-196","","0","images/D11.png","","","","[""Hard"",""Soft""]"
"","","","","","html-slider-response","48","91007","0.0-40.0","nfqnfjue15","NaN","<div style=""width:500px;"">
                                <p style=""font-size:50px; font-weight:bold;""
                                ></p>
                                <div style=""width:240px; margin: auto;"">
                                    <img src=""images/D6.png"" style= ""width:200px""alt=""img"">
                                </div>
                            </div>","-196","","0","images/D6.png","","","","[""Hard"",""Soft""]"
"","","","","","html-slider-response","49","91856","0.0-41.0","nfqnfjue15","NaN","<div style=""width:500px;"">
                                <p style=""font-size:50px; font-weight:bold;""
                                ></p>
                                <div style=""width:240px; margin: auto;"">
                                    <img src=""images/D24.png"" style= ""width:200px""alt=""img"">
                                </div>
                            </div>","114","","0","images/D24.png","","","","[""Hard"",""Soft""]"
"","","","","","html-slider-response","50","92539","0.0-42.0","nfqnfjue15","NaN","<div style=""width:500px;"">
                                <p style=""font-size:50px; font-weight:bold;""
                                ></p>
                                <div style=""width:240px; margin: auto;"">
                                    <img src=""images/D79.png"" style= ""width:200px""alt=""img"">
                                </div>
                            </div>","-106","","0","images/D79.png","","","","[""Hard"",""Soft""]"
"","","","","","html-slider-response","51","93259","0.0-43.0","nfqnfjue15","NaN","<div style=""width:500px;"">
                                <p style=""font-size:50px; font-weight:bold;""
                                ></p>
                                <div style=""width:240px; margin: auto;"">
                                    <img src=""images/D64.png"" style= ""width:200px""alt=""img"">
                                </div>
                            </div>","84","","0","images/D64.png","","","","[""Hard"",""Soft""]"
"","","","","","html-slider-response","52","93952","0.0-44.0","nfqnfjue15","NaN","<div style=""width:500px;"">
                                <p style=""font-size:50px; font-weight:bold;""
                                ></p>
                                <div style=""width:240px; margin: auto;"">
                                    <img src=""images/D83.png"" style= ""width:200px""alt=""img"">
                                </div>
                            </div>","-70","","0","images/D83.png","","","","[""Hard"",""Soft""]"
"","","","","","html-slider-response","53","94628","0.0-45.0","nfqnfjue15","NaN","<div style=""width:500px;"">
                                <p style=""font-size:50px; font-weight:bold;""
                                ></p>
                                <div style=""width:240px; margin: auto;"">
                                    <img src=""images/D18.png"" style= ""width:200px""alt=""img"">
                                </div>
                            </div>","57","","0","images/D18.png","","","","[""Hard"",""Soft""]"
"","","","","","html-slider-response","54","95318","0.0-46.0","nfqnfjue15","NaN","<div style=""width:500px;"">
                                <p style=""font-size:50px; font-weight:bold;""
                                ></p>
                                <div style=""width:240px; margin: auto;"">
                                    <img src=""images/D53.png"" style= ""width:200px""alt=""img"">
                                </div>
                            </div>","-79","","0","images/D53.png","","","","[""Hard"",""Soft""]"
"","","","","","html-slider-response","55","95963","0.0-47.0","nfqnfjue15","NaN","<div style=""width:500px;"">
                                <p style=""font-size:50px; font-weight:bold;""
                                ></p>
                                <div style=""width:240px; margin: auto;"">
                                    <img src=""images/D34.png"" style= ""width:200px""alt=""img"">
                                </div>
                            </div>","64","","0","images/D34.png","","","","[""Hard"",""Soft""]"
"","","","","","html-slider-response","56","97170","0.0-48.0","nfqnfjue15","NaN","<div style=""width:500px;"">
                                <p style=""font-size:50px; font-weight:bold;""
                                ></p>
                                <div style=""width:240px; margin: auto;"">
                                    <img src=""images/D102.png"" style= ""width:200px""alt=""img"">
                                </div>
                            </div>","-58","","0","images/D102.png","","","","[""Hard"",""Soft""]"
"","","","","","html-slider-response","57","97793","0.0-49.0","nfqnfjue15","NaN","<div style=""width:500px;"">
                                <p style=""font-size:50px; font-weight:bold;""
                                ></p>
                                <div style=""width:240px; margin: auto;"">
                                    <img src=""images/D32.png"" style= ""width:200px""alt=""img"">
                                </div>
                            </div>","88","","0","images/D32.png","","","","[""Hard"",""Soft""]"
"","","","","","html-slider-response","58","99035","0.0-50.0","nfqnfjue15","NaN","<div style=""width:500px;"">
                                <p style=""font-size:50px; font-weight:bold;""
                                ></p>
                                <div style=""width:240px; margin: auto;"">
                                    <img src=""images/D77.png"" style= ""width:200px""alt=""img"">
                                </div>
                            </div>","26","","0","images/D77.png","","","","[""Hard"",""Soft""]"
"","","","","","html-slider-response","59","100220","0.0-51.0","nfqnfjue15","NaN","<div style=""width:500px;"">
                                <p style=""font-size:50px; font-weight:bold;""
                                ></p>
                                <div style=""width:240px; margin: auto;"">
                                    <img src=""images/D16.png"" style= ""width:200px""alt=""img"">
                                </div>
                            </div>","-114","","0","images/D16.png","","","","[""Hard"",""Soft""]"
"","","","","","html-slider-response","60","101317","0.0-52.0","nfqnfjue15","NaN","<div style=""width:500px;"">
                                <p style=""font-size:50px; font-weight:bold;""
                                ></p>
                                <div style=""width:240px; margin: auto;"">
                                    <img src=""images/D84.png"" style= ""width:200px""alt=""img"">
                                </div>
                            </div>","132","","0","images/D84.png","","","","[""Hard"",""Soft""]"
"","","","","","html-slider-response","61","101968","0.0-53.0","nfqnfjue15","NaN","<div style=""width:500px;"">
                                <p style=""font-size:50px; font-weight:bold;""
                                ></p>
                                <div style=""width:240px; margin: auto;"">
                                    <img src=""images/D96.png"" style= ""width:200px""alt=""img"">
                                </div>
                            </div>","-83","","0","images/D96.png","","","","[""Hard"",""Soft""]"
"","","","","","html-slider-response","62","103045","0.0-54.0","nfqnfjue15","NaN","<div style=""width:500px;"">
                                <p style=""font-size:50px; font-weight:bold;""
                                ></p>
                                <div style=""width:240px; margin: auto;"">
                                    <img src=""images/D55.png"" style= ""width:200px""alt=""img"">
                                </div>
                            </div>","125","","0","images/D55.png","","","","[""Hard"",""Soft""]"
"","","","","","html-slider-response","63","104617","0.0-55.0","nfqnfjue15","NaN","<div style=""width:500px;"">
                                <p style=""font-size:50px; font-weight:bold;""
                                ></p>
                                <div style=""width:240px; margin: auto;"">
                                    <img src=""images/D17.png"" style= ""width:200px""alt=""img"">
                                </div>
                            </div>","-92","","0","images/D17.png","","","","[""Hard"",""Soft""]"
"","","","","","html-slider-response","64","105981","0.0-56.0","nfqnfjue15","NaN","<div style=""width:500px;"">
                                <p style=""font-size:50px; font-weight:bold;""
                                ></p>
                                <div style=""width:240px; margin: auto;"">
                                    <img src=""images/D14.png"" style= ""width:200px""alt=""img"">
                                </div>
                            </div>","133","","0","images/D14.png","","","","[""Hard"",""Soft""]"
"","","","","","html-slider-response","65","106798","0.0-57.0","nfqnfjue15","NaN","<div style=""width:500px;"">
                                <p style=""font-size:50px; font-weight:bold;""
                                ></p>
                                <div style=""width:240px; margin: auto;"">
                                    <img src=""images/D29.png"" style= ""width:200px""alt=""img"">
                                </div>
                            </div>","-126","","0","images/D29.png","","","","[""Hard"",""Soft""]"
"","","","","","html-slider-response","66","108290","0.0-58.0","nfqnfjue15","NaN","<div style=""width:500px;"">
                                <p style=""font-size:50px; font-weight:bold;""
                                ></p>
                                <div style=""width:240px; margin: auto;"">
                                    <img src=""images/D94.png"" style= ""width:200px""alt=""img"">
                                </div>
                            </div>","93","","0","images/D94.png","","","","[""Hard"",""Soft""]"
"","","","","","html-slider-response","67","109067","0.0-59.0","nfqnfjue15","NaN","<div style=""width:500px;"">
                                <p style=""font-size:50px; font-weight:bold;""
                                ></p>
                                <div style=""width:240px; margin: auto;"">
                                    <img src=""images/D26.png"" style= ""width:200px""alt=""img"">
                                </div>
                            </div>","-120","","0","images/D26.png","","","","[""Hard"",""Soft""]"
"","","","","","html-slider-response","68","109876","0.0-60.0","nfqnfjue15","NaN","<div style=""width:500px;"">
                                <p style=""font-size:50px; font-weight:bold;""
                                ></p>
                                <div style=""width:240px; margin: auto;"">
                                    <img src=""images/D92.png"" style= ""width:200px""alt=""img"">
                                </div>
                            </div>","51","","0","images/D92.png","","","","[""Hard"",""Soft""]"
"","","","","","html-slider-response","69","110700","0.0-61.0","nfqnfjue15","NaN","<div style=""width:500px;"">
                                <p style=""font-size:50px; font-weight:bold;""
                                ></p>
                                <div style=""width:240px; margin: auto;"">
                                    <img src=""images/D76.png"" style= ""width:200px""alt=""img"">
                                </div>
                            </div>","-126","","0","images/D76.png","","","","[""Hard"",""Soft""]"
"","","","","","html-slider-response","70","111516","0.0-62.0","nfqnfjue15","NaN","<div style=""width:500px;"">
                                <p style=""font-size:50px; font-weight:bold;""
                                ></p>
                                <div style=""width:240px; margin: auto;"">
                                    <img src=""images/D57.png"" style= ""width:200px""alt=""img"">
                                </div>
                            </div>","67","","0","images/D57.png","","","","[""Hard"",""Soft""]"
"","","","","","html-slider-response","71","112200","0.0-63.0","nfqnfjue15","NaN","<div style=""width:500px;"">
                                <p style=""font-size:50px; font-weight:bold;""
                                ></p>
                                <div style=""width:240px; margin: auto;"">
                                    <img src=""images/D78.png"" style= ""width:200px""alt=""img"">
                                </div>
                            </div>","-90","","0","images/D78.png","","","","[""Hard"",""Soft""]"
"","","","","","html-slider-response","72","114256","0.0-64.0","nfqnfjue15","NaN","<div style=""width:500px;"">
                                <p style=""font-size:50px; font-weight:bold;""
                                ></p>
                                <div style=""width:240px; margin: auto;"">
                                    <img src=""images/D111.png"" style= ""width:200px""alt=""img"">
                                </div>
                            </div>","96","","0","images/D111.png","","","","[""Hard"",""Soft""]"
"","","","","","html-slider-response","73","115480","0.0-65.0","nfqnfjue15","NaN","<div style=""width:500px;"">
                                <p style=""font-size:50px; font-weight:bold;""
                                ></p>
                                <div style=""width:240px; margin: auto;"">
                                    <img src=""images/D104.png"" style= ""width:200px""alt=""img"">
                                </div>
                            </div>","98","","0","images/D104.png","","","","[""Hard"",""Soft""]"
"","","","","","html-slider-response","74","116359","0.0-66.0","nfqnfjue15","NaN","<div style=""width:500px;"">
                                <p style=""font-size:50px; font-weight:bold;""
                                ></p>
                                <div style=""width:240px; margin: auto;"">
                                    <img src=""images/D35.png"" style= ""width:200px""alt=""img"">
                                </div>
                            </div>","-114","","0","images/D35.png","","","","[""Hard"",""Soft""]"
"","","","","","html-slider-response","75","117130","0.0-67.0","nfqnfjue15","NaN","<div style=""width:500px;"">
                                <p style=""font-size:50px; font-weight:bold;""
                                ></p>
                                <div style=""width:240px; margin: auto;"">
                                    <img src=""images/D101.png"" style= ""width:200px""alt=""img"">
                                </div>
                            </div>","98","","0","images/D101.png","","","","[""Hard"",""Soft""]"
"","","","","","html-slider-response","76","117962","0.0-68.0","nfqnfjue15","NaN","<div style=""width:500px;"">
                                <p style=""font-size:50px; font-weight:bold;""
                                ></p>
                                <div style=""width:240px; margin: auto;"">
                                    <img src=""images/D9.png"" style= ""width:200px""alt=""img"">
                                </div>
                            </div>","-70","","0","images/D9.png","","","","[""Hard"",""Soft""]"
"","","","","","html-slider-response","77","118912","0.0-69.0","nfqnfjue15","NaN","<div style=""width:500px;"">
                                <p style=""font-size:50px; font-weight:bold;""
                                ></p>
                                <div style=""width:240px; margin: auto;"">
                                    <img src=""images/D80.png"" style= ""width:200px""alt=""img"">
                                </div>
                            </div>","92","","0","images/D80.png","","","","[""Hard"",""Soft""]"
"","","","","","html-slider-response","78","119642","0.0-70.0","nfqnfjue15","NaN","<div style=""width:500px;"">
                                <p style=""font-size:50px; font-weight:bold;""
                                ></p>
                                <div style=""width:240px; margin: auto;"">
                                    <img src=""images/D105.png"" style= ""width:200px""alt=""img"">
                                </div>
                            </div>","-109","","0","images/D105.png","","","","[""Hard"",""Soft""]"
"","","","","","html-slider-response","79","120718","0.0-71.0","nfqnfjue15","NaN","<div style=""width:500px;"">
                                <p style=""font-size:50px; font-weight:bold;""
                                ></p>
                                <div style=""width:240px; margin: auto;"">
                                    <img src=""images/D21.png"" style= ""width:200px""alt=""img"">
                                </div>
                            </div>","170","","0","images/D21.png","","","","[""Hard"",""Soft""]"
"","","","","","html-slider-response","80","121424","0.0-72.0","nfqnfjue15","NaN","<div style=""width:500px;"">
                                <p style=""font-size:50px; font-weight:bold;""
                                ></p>
                                <div style=""width:240px; margin: auto;"">
                                    <img src=""images/D47.png"" style= ""width:200px""alt=""img"">
                                </div>
                            </div>","170","","0","images/D47.png","","","","[""Hard"",""Soft""]"
"","","","","","html-slider-response","81","122256","0.0-73.0","nfqnfjue15","NaN","<div style=""width:500px;"">
                                <p style=""font-size:50px; font-weight:bold;""
                                ></p>
                                <div style=""width:240px; margin: auto;"">
                                    <img src=""images/D49.png"" style= ""width:200px""alt=""img"">
                                </div>
                            </div>","170","","0","images/D49.png","","","","[""Hard"",""Soft""]"
"","","","","","html-slider-response","82","123043","0.0-74.0","nfqnfjue15","NaN","<div style=""width:500px;"">
                                <p style=""font-size:50px; font-weight:bold;""
                                ></p>
                                <div style=""width:240px; margin: auto;"">
                                    <img src=""images/D87.png"" style= ""width:200px""alt=""img"">
                                </div>
                            </div>","170","","0","images/D87.png","","","","[""Hard"",""Soft""]"
"","","","","","html-slider-response","83","123764","0.0-75.0","nfqnfjue15","NaN","<div style=""width:500px;"">
                                <p style=""font-size:50px; font-weight:bold;""
                                ></p>
                                <div style=""width:240px; margin: auto;"">
                                    <img src=""images/D19.png"" style= ""width:200px""alt=""img"">
                                </div>
                            </div>","170","","0","images/D19.png","","","","[""Hard"",""Soft""]"
"","","","","","html-button-response","84","125898","0.0-76.0","nfqnfjue15","1631","You have completed the first block of trials out of six. Please click 'Continue' when you are ready proceed.","0","","","","","","",""
"","","","","","html-button-response","85","126856","0.0-77.0","nfqnfjue15","957","In the following trials, you will be asked to rate textures on the scale <b>Stripey</b> versus <b>Blobby</b>. Please click 'Continue' when you are ready proceed.","0","","","","","","",""
"","","","","","html-slider-response","86","127432","0.0-78.0","nfqnfjue15","NaN","<div style=""width:500px;"">
                                <p style=""font-size:50px; font-weight:bold;""
                                ></p>
                                <div style=""width:240px; margin: auto;"">
                                    <img src=""images/D53.png"" style= ""width:200px""alt=""img"">
                                </div>
                            </div>","-82","","0","images/D53.png","","","","[""Stripey"",""Blobby""]"
"","","","","","html-slider-response","87","128257","0.0-79.0","nfqnfjue15","NaN","<div style=""width:500px;"">
                                <p style=""font-size:50px; font-weight:bold;""
                                ></p>
                                <div style=""width:240px; margin: auto;"">
                                    <img src=""images/D106.png"" style= ""width:200px""alt=""img"">
                                </div>
                            </div>","88","","0","images/D106.png","","","","[""Stripey"",""Blobby""]"
"","","","","","html-slider-response","88","130173","0.0-80.0","nfqnfjue15","NaN","<div style=""width:500px;"">
                                <p style=""font-size:50px; font-weight:bold;""
                                ></p>
                                <div style=""width:240px; margin: auto;"">
                                    <img src=""images/D77.png"" style= ""width:200px""alt=""img"">
                                </div>
                            </div>","88","","0","images/D77.png","","","","[""Stripey"",""Blobby""]"
"","","","","","html-slider-response","89","131633","0.0-81.0","nfqnfjue15","NaN","<div style=""width:500px;"">
                                <p style=""font-size:50px; font-weight:bold;""
                                ></p>
                                <div style=""width:240px; margin: auto;"">
                                    <img src=""images/D14.png"" style= ""width:200px""alt=""img"">
                                </div>
                            </div>","-158","","0","images/D14.png","","","","[""Stripey"",""Blobby""]"
"","","","","","html-slider-response","90","132551","0.0-82.0","nfqnfjue15","NaN","<div style=""width:500px;"">
                                <p style=""font-size:50px; font-weight:bold;""
                                ></p>
                                <div style=""width:240px; margin: auto;"">
                                    <img src=""images/D80.png"" style= ""width:200px""alt=""img"">
                                </div>
                            </div>","88","","0","images/D80.png","","","","[""Stripey"",""Blobby""]"
"","","","","","html-slider-response","91","133281","0.0-83.0","nfqnfjue15","NaN","<div style=""width:500px;"">
                                <p style=""font-size:50px; font-weight:bold;""
                                ></p>
                                <div style=""width:240px; margin: auto;"">
                                    <img src=""images/D75.png"" style= ""width:200px""alt=""img"">
                                </div>
                            </div>","-54","","0","images/D75.png","","","","[""Stripey"",""Blobby""]"
"","","","","","html-slider-response","92","135087","0.0-84.0","nfqnfjue15","NaN","<div style=""width:500px;"">
                                <p style=""font-size:50px; font-weight:bold;""
                                ></p>
                                <div style=""width:240px; margin: auto;"">
                                    <img src=""images/D20.png"" style= ""width:200px""alt=""img"">
                                </div>
                            </div>","-57","","0","images/D20.png","","","","[""Stripey"",""Blobby""]"
"","","","","","html-slider-response","93","136469","0.0-85.0","nfqnfjue15","NaN","<div style=""width:500px;"">
                                <p style=""font-size:50px; font-weight:bold;""
                                ></p>
                                <div style=""width:240px; margin: auto;"">
                                    <img src=""images/D8.png"" style= ""width:200px""alt=""img"">
                                </div>
                            </div>","52","","0","images/D8.png","","","","[""Stripey"",""Blobby""]"
"","","","","","html-slider-response","94","137497","0.0-86.0","nfqnfjue15","NaN","<div style=""width:500px;"">
                                <p style=""font-size:50px; font-weight:bold;""
                                ></p>
                                <div style=""width:240px; margin: auto;"">
                                    <img src=""images/D82.png"" style= ""width:200px""alt=""img"">
                                </div>
                            </div>","-41","","0","images/D82.png","","","","[""Stripey"",""Blobby""]"
"","","","","","html-slider-response","95","138354","0.0-87.0","nfqnfjue15","NaN","<div style=""width:500px;"">
                                <p style=""font-size:50px; font-weight:bold;""
                                ></p>
                                <div style=""width:240px; margin: auto;"">
                                    <img src=""images/D104.png"" style= ""width:200px""alt=""img"">
                                </div>
                            </div>","117","","0","images/D104.png","","","","[""Stripey"",""Blobby""]"
"","","","","","html-slider-response","96","139193","0.0-88.0","nfqnfjue15","NaN","<div style=""width:500px;"">
                                <p style=""font-size:50px; font-weight:bold;""
                                ></p>
                                <div style=""width:240px; margin: auto;"">
                                    <img src=""images/D55.png"" style= ""width:200px""alt=""img"">
                                </div>
                            </div>","-44","","0","images/D55.png","","","","[""Stripey"",""Blobby""]"
"","","","","","html-slider-response","97","140065","0.0-89.0","nfqnfjue15","NaN","<div style=""width:500px;"">
                                <p style=""font-size:50px; font-weight:bold;""
                                ></p>
                                <div style=""width:240px; margin: auto;"">
                                    <img src=""images/D32.png"" style= ""width:200px""alt=""img"">
                                </div>
                            </div>","-44","","0","images/D32.png","","","","[""Stripey"",""Blobby""]"
"","","","","","html-slider-response","98","141047","0.0-90.0","nfqnfjue15","NaN","<div style=""width:500px;"">
                                <p style=""font-size:50px; font-weight:bold;""
                                ></p>
                                <div style=""width:240px; margin: auto;"">
                                    <img src=""images/D26.png"" style= ""width:200px""alt=""img"">
                                </div>
                            </div>","51","","0","images/D26.png","","","","[""Stripey"",""Blobby""]"
"","","","","","html-slider-response","99","141825","0.0-91.0","nfqnfjue15","NaN","<div style=""width:500px;"">
                                <p style=""font-size:50px; font-weight:bold;""
                                ></p>
                                <div style=""width:240px; margin: auto;"">
                                    <img src=""images/D66.png"" style= ""width:200px""alt=""img"">
                                </div>
                            </div>","-41","","0","images/D66.png","","","","[""Stripey"",""Blobby""]"
"","","","","","html-slider-response","100","142509","0.0-92.0","nfqnfjue15","NaN","<div style=""width:500px;"">
                                <p style=""font-size:50px; font-weight:bold;""
                                ></p>
                                <div style=""width:240px; margin: auto;"">
                                    <img src=""images/D18.png"" style= ""width:200px""alt=""img"">
                                </div>
                            </div>","38","","0","images/D18.png","","","","[""Stripey"",""Blobby""]"
"","","","","","html-slider-response","101","143152","0.0-93.0","nfqnfjue15","NaN","<div style=""width:500px;"">
                                <p style=""font-size:50px; font-weight:bold;""
                                ></p>
                                <div style=""width:240px; margin: auto;"">
                                    <img src=""images/D78.png"" style= ""width:200px""alt=""img"">
                                </div>
                            </div>","-49","","0","images/D78.png","","","","[""Stripey"",""Blobby""]"
"","","","","","html-slider-response","102","144180","0.0-94.0","nfqnfjue15","NaN","<div style=""width:500px;"">
                                <p style=""font-size:50px; font-weight:bold;""
                                ></p>
                                <div style=""width:240px; margin: auto;"">
                                    <img src=""images/D56.png"" style= ""width:200px""alt=""img"">
                                </div>
                            </div>","10","","0","images/D56.png","","","","[""Stripey"",""Blobby""]"
"","","","","","html-slider-response","103","144880","0.0-95.0","nfqnfjue15","NaN","<div style=""width:500px;"">
                                <p style=""font-size:50px; font-weight:bold;""
                                ></p>
                                <div style=""width:240px; margin: auto;"">
                                    <img src=""images/D96.png"" style= ""width:200px""alt=""img"">
                                </div>
                            </div>","10","","0","images/D96.png","","","","[""Stripey"",""Blobby""]"
"","","","","","html-slider-response","104","145720","0.0-96.0","nfqnfjue15","NaN","<div style=""width:500px;"">
                                <p style=""font-size:50px; font-weight:bold;""
                                ></p>
                                <div style=""width:240px; margin: auto;"">
                                    <img src=""images/D92.png"" style= ""width:200px""alt=""img"">
                                </div>
                            </div>","133","","0","images/D92.png","","","","[""Stripey"",""Blobby""]"
"","","","","","html-slider-response","105","146960","0.0-97.0","nfqnfjue15","NaN","<div style=""width:500px;"">
                                <p style=""font-size:50px; font-weight:bold;""
                                ></p>
                                <div style=""width:240px; margin: auto;"">
                                    <img src=""images/D94.png"" style= ""width:200px""alt=""img"">
                                </div>
                            </div>","-112","","0","images/D94.png","","","","[""Stripey"",""Blobby""]"
"","","","","","html-slider-response","106","147721","0.0-98.0","nfqnfjue15","NaN","<div style=""width:500px;"">
                                <p style=""font-size:50px; font-weight:bold;""
                                ></p>
                                <div style=""width:240px; margin: auto;"">
                                    <img src=""images/D85.png"" style= ""width:200px""alt=""img"">
                                </div>
                            </div>","92","","0","images/D85.png","","","","[""Stripey"",""Blobby""]"
"","","","","","html-slider-response","107","148460","0.0-99.0","nfqnfjue15","NaN","<div style=""width:500px;"">
                                <p style=""font-size:50px; font-weight:bold;""
                                ></p>
                                <div style=""width:240px; margin: auto;"">
                                    <img src=""images/D21.png"" style= ""width:200px""alt=""img"">
                                </div>
                            </div>","-28","","0","images/D21.png","","","","[""Stripey"",""Blobby""]"
"","","","","","html-slider-response","108","149585","0.0-100.0","nfqnfjue15","NaN","<div style=""width:500px;"">
                                <p style=""font-size:50px; font-weight:bold;""
                                ></p>
                                <div style=""width:240px; margin: auto;"">
                                    <img src=""images/D64.png"" style= ""width:200px""alt=""img"">
                                </div>
                            </div>","94","","0","images/D64.png","","","","[""Stripey"",""Blobby""]"
"","","","","","html-slider-response","109","150603","0.0-101.0","nfqnfjue15","NaN","<div style=""width:500px;"">
                                <p style=""font-size:50px; font-weight:bold;""
                                ></p>
                                <div style=""width:240px; margin: auto;"">
                                    <img src=""images/D76.png"" style= ""width:200px""alt=""img"">
                                </div>
                            </div>","-110","","0","images/D76.png","","","","[""Stripey"",""Blobby""]"
"","","","","","html-slider-response","110","151405","0.0-102.0","nfqnfjue15","NaN","<div style=""width:500px;"">
                                <p style=""font-size:50px; font-weight:bold;""
                                ></p>
                                <div style=""width:240px; margin: auto;"">
                                    <img src=""images/D81.png"" style= ""width:200px""alt=""img"">
                                </div>
                            </div>","90","","0","images/D81.png","","","","[""Stripey"",""Blobby""]"
"","","","","","html-slider-response","111","152316","0.0-103.0","nfqnfjue15","NaN","<div style=""width:500px;"">
                                <p style=""font-size:50px; font-weight:bold;""
                                ></p>
                                <div style=""width:240px; margin: auto;"">
                                    <img src=""images/D52.png"" style= ""width:200px""alt=""img"">
                                </div>
                            </div>","-107","","0","images/D52.png","","","","[""Stripey"",""Blobby""]"
"","","","","","html-slider-response","112","153181","0.0-104.0","nfqnfjue15","NaN","<div style=""width:500px;"">
                                <p style=""font-size:50px; font-weight:bold;""
                                ></p>
                                <div style=""width:240px; margin: auto;"">
                                    <img src=""images/D51.png"" style= ""width:200px""alt=""img"">
                                </div>
                            </div>","-107","","0","images/D51.png","","","","[""Stripey"",""Blobby""]"
"","","","","","html-slider-response","113","154256","0.0-105.0","nfqnfjue15","NaN","<div style=""width:500px;"">
                                <p style=""font-size:50px; font-weight:bold;""
                                ></p>
                                <div style=""width:240px; margin: auto;"">
                                    <img src=""images/D79.png"" style= ""width:200px""alt=""img"">
                                </div>
                            </div>","-107","","0","images/D79.png","","","","[""Stripey"",""Blobby""]"
"","","","","","html-slider-response","114","155575","0.0-106.0","nfqnfjue15","NaN","<div style=""width:500px;"">
                                <p style=""font-size:50px; font-weight:bold;""
                                ></p>
                                <div style=""width:240px; margin: auto;"">
                                    <img src=""images/D48.png"" style= ""width:200px""alt=""img"">
                                </div>
                            </div>","116","","0","images/D48.png","","","","[""Stripey"",""Blobby""]"
"","","","","","html-slider-response","115","156218","0.0-107.0","nfqnfjue15","NaN","<div style=""width:500px;"">
                                <p style=""font-size:50px; font-weight:bold;""
                                ></p>
                                <div style=""width:240px; margin: auto;"">
                                    <img src=""images/D4.png"" style= ""width:200px""alt=""img"">
                                </div>
                            </div>","-107","","0","images/D4.png","","","","[""Stripey"",""Blobby""]"
"","","","","","html-slider-response","116","156989","0.0-108.0","nfqnfjue15","NaN","<div style=""width:500px;"">
                                <p style=""font-size:50px; font-weight:bold;""
                                ></p>
                                <div style=""width:240px; margin: auto;"">
                                    <img src=""images/D34.png"" style= ""width:200px""alt=""img"">
                                </div>
                            </div>","-107","","0","images/D34.png","","","","[""Stripey"",""Blobby""]"
"","","","","","html-slider-response","117","157781","0.0-109.0","nfqnfjue15","NaN","<div style=""width:500px;"">
                                <p style=""font-size:50px; font-weight:bold;""
                                ></p>
                                <div style=""width:240px; margin: auto;"">
                                    <img src=""images/D74.png"" style= ""width:200px""alt=""img"">
                                </div>
                            </div>","78","","0","images/D74.png","","","","[""Stripey"",""Blobby""]"
"","","","","","html-slider-response","118","158534","0.0-110.0","nfqnfjue15","NaN","<div style=""width:500px;"">
                                <p style=""font-size:50px; font-weight:bold;""
                                ></p>
                                <div style=""width:240px; margin: auto;"">
                                    <img src=""images/D36.png"" style= ""width:200px""alt=""img"">
                                </div>
                            </div>","-74","","0","images/D36.png","","","","[""Stripey"",""Blobby""]"
"","","","","","html-slider-response","119","159361","0.0-111.0","nfqnfjue15","NaN","<div style=""width:500px;"">
                                <p style=""font-size:50px; font-weight:bold;""
                                ></p>
                                <div style=""width:240px; margin: auto;"">
                                    <img src=""images/D22.png"" style= ""width:200px""alt=""img"">
                                </div>
                            </div>","96","","0","images/D22.png","","","","[""Stripey"",""Blobby""]"
"","","","","","html-slider-response","120","160028","0.0-112.0","nfqnfjue15","NaN","<div style=""width:500px;"">
                                <p style=""font-size:50px; font-weight:bold;""
                                ></p>
                                <div style=""width:240px; margin: auto;"">
                                    <img src=""images/D49.png"" style= ""width:200px""alt=""img"">
                                </div>
                            </div>","-66","","0","images/D49.png","","","","[""Stripey"",""Blobby""]"
"","","","","","html-slider-response","121","160680","0.0-113.0","nfqnfjue15","NaN","<div style=""width:500px;"">
                                <p style=""font-size:50px; font-weight:bold;""
                                ></p>
                                <div style=""width:240px; margin: auto;"">
                                    <img src=""images/D25.png"" style= ""width:200px""alt=""img"">
                                </div>
                            </div>","104","","0","images/D25.png","","","","[""Stripey"",""Blobby""]"
"","","","","","html-slider-response","122","161299","0.0-114.0","nfqnfjue15","NaN","<div style=""width:500px;"">
                                <p style=""font-size:50px; font-weight:bold;""
                                ></p>
                                <div style=""width:240px; margin: auto;"">
                                    <img src=""images/D16.png"" style= ""width:200px""alt=""img"">
                                </div>
                            </div>","-93","","0","images/D16.png","","","","[""Stripey"",""Blobby""]"
"","","","","","html-slider-response","123","162147","0.0-115.0","nfqnfjue15","NaN","<div style=""width:500px;"">
                                <p style=""font-size:50px; font-weight:bold;""
                                ></p>
                                <div style=""width:240px; margin: auto;"">
                                    <img src=""images/D95.png"" style= ""width:200px""alt=""img"">
                                </div>
                            </div>","69","","0","images/D95.png","","","","[""Stripey"",""Blobby""]"
"","","","","","html-slider-response","124","163169","0.0-116.0","nfqnfjue15","NaN","<div style=""width:500px;"">
                                <p style=""font-size:50px; font-weight:bold;""
                                ></p>
                                <div style=""width:240px; margin: auto;"">
                                    <img src=""images/D103.png"" style= ""width:200px""alt=""img"">
                                </div>
                            </div>","-117","","0","images/D103.png","","","","[""Stripey"",""Blobby""]"
"","","","","","html-slider-response","125","164001","0.0-117.0","nfqnfjue15","NaN","<div style=""width:500px;"">
                                <p style=""font-size:50px; font-weight:bold;""
                                ></p>
                                <div style=""width:240px; margin: auto;"">
                                    <img src=""images/D3.png"" style= ""width:200px""alt=""img"">
                                </div>
                            </div>","91","","0","images/D3.png","","","","[""Stripey"",""Blobby""]"
"","","","","","html-slider-response","126","164834","0.0-118.0","nfqnfjue15","NaN","<div style=""width:500px;"">
                                <p style=""font-size:50px; font-weight:bold;""
                                ></p>
                                <div style=""width:240px; margin: auto;"">
                                    <img src=""images/D35.png"" style= ""width:200px""alt=""img"">
                                </div>
                            </div>","-67","","0","images/D35.png","","","","[""Stripey"",""Blobby""]"
"","","","","","html-slider-response","127","165446","0.0-119.0","nfqnfjue15","NaN","<div style=""width:500px;"">
                                <p style=""font-size:50px; font-weight:bold;""
                                ></p>
                                <div style=""width:240px; margin: auto;"">
                                    <img src=""images/D11.png"" style= ""width:200px""alt=""img"">
                                </div>
                            </div>","42","","0","images/D11.png","","","","[""Stripey"",""Blobby""]"
"","","","","","html-slider-response","128","166434","0.0-120.0","nfqnfjue15","NaN","<div style=""width:500px;"">
                                <p style=""font-size:50px; font-weight:bold;""
                                ></p>
                                <div style=""width:240px; margin: auto;"">
                                    <img src=""images/D17.png"" style= ""width:200px""alt=""img"">
                                </div>
                            </div>","-82","","0","images/D17.png","","","","[""Stripey"",""Blobby""]"
"","","","","","html-slider-response","129","167203","0.0-121.0","nfqnfjue15","NaN","<div style=""width:500px;"">
                                <p style=""font-size:50px; font-weight:bold;""
                                ></p>
                                <div style=""width:240px; margin: auto;"">
                                    <img src=""images/D68.png"" style= ""width:200px""alt=""img"">
                                </div>
                            </div>","56","","0","images/D68.png","","","","[""Stripey"",""Blobby""]"
"","","","","","html-slider-response","130","167941","0.0-122.0","nfqnfjue15","NaN","<div style=""width:500px;"">
                                <p style=""font-size:50px; font-weight:bold;""
                                ></p>
                                <div style=""width:240px; margin: auto;"">
                                    <img src=""images/D6.png"" style= ""width:200px""alt=""img"">
                                </div>
                            </div>","-75","","0","images/D6.png","","","","[""Stripey"",""Blobby""]"
"","","","","","html-slider-response","131","168634","0.0-123.0","nfqnfjue15","NaN","<div style=""width:500px;"">
                                <p style=""font-size:50px; font-weight:bold;""
                                ></p>
                                <div style=""width:240px; margin: auto;"">
                                    <img src=""images/D84.png"" style= ""width:200px""alt=""img"">
                                </div>
                            </div>","138","","0","images/D84.png","","","","[""Stripey"",""Blobby""]"
"","","","","","html-slider-response","132","169425","0.0-124.0","nfqnfjue15","NaN","<div style=""width:500px;"">
                                <p style=""font-size:50px; font-weight:bold;""
                                ></p>
                                <div style=""width:240px; margin: auto;"">
                                    <img src=""images/D1.png"" style= ""width:200px""alt=""img"">
                                </div>
                            </div>","-90","","0","images/D1.png","","","","[""Stripey"",""Blobby""]"
"","","","","","html-slider-response","133","170383","0.0-125.0","nfqnfjue15","NaN","<div style=""width:500px;"">
                                <p style=""font-size:50px; font-weight:bold;""
                                ></p>
                                <div style=""width:240px; margin: auto;"">
                                    <img src=""images/D101.png"" style= ""width:200px""alt=""img"">
                                </div>
                            </div>","131","","0","images/D101.png","","","","[""Stripey"",""Blobby""]"
"","","","","","html-slider-response","134","171036","0.0-126.0","nfqnfjue15","NaN","<div style=""width:500px;"">
                                <p style=""font-size:50px; font-weight:bold;""
                                ></p>
                                <div style=""width:240px; margin: auto;"">
                                    <img src=""images/D37.png"" style= ""width:200px""alt=""img"">
                                </div>
                            </div>","-78","","0","images/D37.png","","","","[""Stripey"",""Blobby""]"
"","","","","","html-slider-response","135","171664","0.0-127.0","nfqnfjue15","NaN","<div style=""width:500px;"">
                                <p style=""font-size:50px; font-weight:bold;""
                                ></p>
                                <div style=""width:240px; margin: auto;"">
                                    <img src=""images/D47.png"" style= ""width:200px""alt=""img"">
                                </div>
                            </div>","190","","0","images/D47.png","","","","[""Stripey"",""Blobby""]"
"","","","","","html-slider-response","136","172662","0.0-128.0","nfqnfjue15","NaN","<div style=""width:500px;"">
                                <p style=""font-size:50px; font-weight:bold;""
                                ></p>
                                <div style=""width:240px; margin: auto;"">
                                    <img src=""images/D87.png"" style= ""width:200px""alt=""img"">
                                </div>
                            </div>","-82","","0","images/D87.png","","","","[""Stripey"",""Blobby""]"
"","","","","","html-slider-response","137","173311","0.0-129.0","nfqnfjue15","NaN","<div style=""width:500px;"">
                                <p style=""font-size:50px; font-weight:bold;""
                                ></p>
                                <div style=""width:240px; margin: auto;"">
                                    <img src=""images/D65.png"" style= ""width:200px""alt=""img"">
                                </div>
                            </div>","73","","0","images/D65.png","","","","[""Stripey"",""Blobby""]"
"","","","","","html-slider-response","138","174160","0.0-130.0","nfqnfjue15","NaN","<div style=""width:500px;"">
                                <p style=""font-size:50px; font-weight:bold;""
                                ></p>
                                <div style=""width:240px; margin: auto;"">
                                    <img src=""images/D105.png"" style= ""width:200px""alt=""img"">
                                </div>
                            </div>","-43","","0","images/D105.png","","","","[""Stripey"",""Blobby""]"
"","","","","","html-slider-response","139","175142","0.0-131.0","nfqnfjue15","NaN","<div style=""width:500px;"">
                                <p style=""font-size:50px; font-weight:bold;""
                                ></p>
                                <div style=""width:240px; margin: auto;"">
                                    <img src=""images/D19.png"" style= ""width:200px""alt=""img"">
                                </div>
                            </div>","-73","","0","images/D19.png","","","","[""Stripey"",""Blobby""]"
"","","","","","html-slider-response","140","175832","0.0-132.0","nfqnfjue15","NaN","<div style=""width:500px;"">
                                <p style=""font-size:50px; font-weight:bold;""
                                ></p>
                                <div style=""width:240px; margin: auto;"">
                                    <img src=""images/D46.png"" style= ""width:200px""alt=""img"">
                                </div>
                            </div>","-73","","0","images/D46.png","","","","[""Stripey"",""Blobby""]"
"","","","","","html-slider-response","141","176469","0.0-133.0","nfqnfjue15","NaN","<div style=""width:500px;"">
                                <p style=""font-size:50px; font-weight:bold;""
                                ></p>
                                <div style=""width:240px; margin: auto;"">
                                    <img src=""images/D24.png"" style= ""width:200px""alt=""img"">
                                </div>
                            </div>","173","","0","images/D24.png","","","","[""Stripey"",""Blobby""]"
"","","","","","html-slider-response","142","177193","0.0-134.0","nfqnfjue15","NaN","<div style=""width:500px;"">
                                <p style=""font-size:50px; font-weight:bold;""
                                ></p>
                                <div style=""width:240px; margin: auto;"">
                                    <img src=""images/D102.png"" style= ""width:200px""alt=""img"">
                                </div>
                            </div>","173","","0","images/D102.png","","","","[""Stripey"",""Blobby""]"
"","","","","","html-slider-response","143","177921","0.0-135.0","nfqnfjue15","NaN","<div style=""width:500px;"">
                                <p style=""font-size:50px; font-weight:bold;""
                                ></p>
                                <div style=""width:240px; margin: auto;"">
                                    <img src=""images/D111.png"" style= ""width:200px""alt=""img"">
                                </div>
                            </div>","171","","0","images/D111.png","","","","[""Stripey"",""Blobby""]"
"","","","","","html-slider-response","144","178636","0.0-136.0","nfqnfjue15","NaN","<div style=""width:500px;"">
                                <p style=""font-size:50px; font-weight:bold;""
                                ></p>
                                <div style=""width:240px; margin: auto;"">
                                    <img src=""images/D29.png"" style= ""width:200px""alt=""img"">
                                </div>
                            </div>","-80","","0","images/D29.png","","","","[""Stripey"",""Blobby""]"
"","","","","","html-slider-response","145","179320","0.0-137.0","nfqnfjue15","NaN","<div style=""width:500px;"">
                                <p style=""font-size:50px; font-weight:bold;""
                                ></p>
                                <div style=""width:240px; margin: auto;"">
                                    <img src=""images/D57.png"" style= ""width:200px""alt=""img"">
                                </div>
                            </div>","146","","0","images/D57.png","","","","[""Stripey"",""Blobby""]"
"","","","","","html-slider-response","146","180537","0.0-138.0","nfqnfjue15","NaN","<div style=""width:500px;"">
                                <p style=""font-size:50px; font-weight:bold;""
                                ></p>
                                <div style=""width:240px; margin: auto;"">
                                    <img src=""images/D83.png"" style= ""width:200px""alt=""img"">
                                </div>
                            </div>","-165","","0","images/D83.png","","","","[""Stripey"",""Blobby""]"
"","","","","","html-slider-response","147","181360","0.0-139.0","nfqnfjue15","NaN","<div style=""width:500px;"">
                                <p style=""font-size:50px; font-weight:bold;""
                                ></p>
                                <div style=""width:240px; margin: auto;"">
                                    <img src=""images/D9.png"" style= ""width:200px""alt=""img"">
                                </div>
                            </div>","104","","0","images/D9.png","","","","[""Stripey"",""Blobby""]"
"","","","","","html-button-response","148","183926","0.0-140.0","nfqnfjue15","2058","You have completed the second block of trials out of six. Please click 'Continue' when you are ready proceed.","0","","","","","","",""
"","","","","","html-button-response","149","184687","0.0-141.0","nfqnfjue15","760","In the following trials, you will be asked to rate textures on the scale <b>Fine</b> versus <b>Coarse</b>. Please click 'Continue' when you are ready proceed.","0","","","","","","",""
"","","","","","html-slider-response","150","185552","0.0-142.0","nfqnfjue15","NaN","<div style=""width:500px;"">
                                <p style=""font-size:50px; font-weight:bold;""
                                ></p>
                                <div style=""width:240px; margin: auto;"">
                                    <img src=""images/D53.png"" style= ""width:200px""alt=""img"">
                                </div>
                            </div>","-68","","0","images/D53.png","","","","[""Fine"",""Coarse""]"
"","","","","","html-slider-response","151","187194","0.0-143.0","nfqnfjue15","NaN","<div style=""width:500px;"">
                                <p style=""font-size:50px; font-weight:bold;""
                                ></p>
                                <div style=""width:240px; margin: auto;"">
                                    <img src=""images/D106.png"" style= ""width:200px""alt=""img"">
                                </div>
                            </div>","-106","","0","images/D106.png","","","","[""Fine"",""Coarse""]"
"","","","","","html-slider-response","152","188034","0.0-144.0","nfqnfjue15","NaN","<div style=""width:500px;"">
                                <p style=""font-size:50px; font-weight:bold;""
                                ></p>
                                <div style=""width:240px; margin: auto;"">
                                    <img src=""images/D77.png"" style= ""width:200px""alt=""img"">
                                </div>
                            </div>","150","","0","images/D77.png","","","","[""Fine"",""Coarse""]"
"","","","","","html-slider-response","153","188781","0.0-145.0","nfqnfjue15","NaN","<div style=""width:500px;"">
                                <p style=""font-size:50px; font-weight:bold;""
                                ></p>
                                <div style=""width:240px; margin: auto;"">
                                    <img src=""images/D14.png"" style= ""width:200px""alt=""img"">
                                </div>
                            </div>","-58","","0","images/D14.png","","","","[""Fine"",""Coarse""]"
"","","","","","html-slider-response","154","189431","0.0-146.0","nfqnfjue15","NaN","<div style=""width:500px;"">
                                <p style=""font-size:50px; font-weight:bold;""
                                ></p>
                                <div style=""width:240px; margin: auto;"">
                                    <img src=""images/D80.png"" style= ""width:200px""alt=""img"">
                                </div>
                            </div>","91","","0","images/D80.png","","","","[""Fine"",""Coarse""]"
"","","","","","html-slider-response","155","190132","0.0-147.0","nfqnfjue15","NaN","<div style=""width:500px;"">
                                <p style=""font-size:50px; font-weight:bold;""
                                ></p>
                                <div style=""width:240px; margin: auto;"">
                                    <img src=""images/D75.png"" style= ""width:200px""alt=""img"">
                                </div>
                            </div>","-11","","0","images/D75.png","","","","[""Fine"",""Coarse""]"
"","","","","","html-slider-response","156","191025","0.0-148.0","nfqnfjue15","NaN","<div style=""width:500px;"">
                                <p style=""font-size:50px; font-weight:bold;""
                                ></p>
                                <div style=""width:240px; margin: auto;"">
                                    <img src=""images/D20.png"" style= ""width:200px""alt=""img"">
                                </div>
                            </div>","52","","0","images/D20.png","","","","[""Fine"",""Coarse""]"
"","","","","","html-slider-response","157","191738","0.0-149.0","nfqnfjue15","NaN","<div style=""width:500px;"">
                                <p style=""font-size:50px; font-weight:bold;""
                                ></p>
                                <div style=""width:240px; margin: auto;"">
                                    <img src=""images/D8.png"" style= ""width:200px""alt=""img"">
                                </div>
                            </div>","-9","","0","images/D8.png","","","","[""Fine"",""Coarse""]"
"","","","","","html-slider-response","158","192596","0.0-150.0","nfqnfjue15","NaN","<div style=""width:500px;"">
                                <p style=""font-size:50px; font-weight:bold;""
                                ></p>
                                <div style=""width:240px; margin: auto;"">
                                    <img src=""images/D82.png"" style= ""width:200px""alt=""img"">
                                </div>
                            </div>","-3","","0","images/D82.png","","","","[""Fine"",""Coarse""]"
"","","","","","html-slider-response","159","193492","0.0-151.0","nfqnfjue15","NaN","<div style=""width:500px;"">
                                <p style=""font-size:50px; font-weight:bold;""
                                ></p>
                                <div style=""width:240px; margin: auto;"">
                                    <img src=""images/D104.png"" style= ""width:200px""alt=""img"">
                                </div>
                            </div>","-3","","0","images/D104.png","","","","[""Fine"",""Coarse""]"
"","","","","","html-slider-response","160","194544","0.0-152.0","nfqnfjue15","NaN","<div style=""width:500px;"">
                                <p style=""font-size:50px; font-weight:bold;""
                                ></p>
                                <div style=""width:240px; margin: auto;"">
                                    <img src=""images/D55.png"" style= ""width:200px""alt=""img"">
                                </div>
                            </div>","54","","0","images/D55.png","","","","[""Fine"",""Coarse""]"
"","","","","","html-slider-response","161","195204","0.0-153.0","nfqnfjue15","NaN","<div style=""width:500px;"">
                                <p style=""font-size:50px; font-weight:bold;""
                                ></p>
                                <div style=""width:240px; margin: auto;"">
                                    <img src=""images/D32.png"" style= ""width:200px""alt=""img"">
                                </div>
                            </div>","-88","","0","images/D32.png","","","","[""Fine"",""Coarse""]"
"","","","","","html-slider-response","162","196467","0.0-154.0","nfqnfjue15","NaN","<div style=""width:500px;"">
                                <p style=""font-size:50px; font-weight:bold;""
                                ></p>
                                <div style=""width:240px; margin: auto;"">
                                    <img src=""images/D26.png"" style= ""width:200px""alt=""img"">
                                </div>
                            </div>","101","","0","images/D26.png","","","","[""Fine"",""Coarse""]"
"","","","","","html-slider-response","163","197339","0.0-155.0","nfqnfjue15","NaN","<div style=""width:500px;"">
                                <p style=""font-size:50px; font-weight:bold;""
                                ></p>
                                <div style=""width:240px; margin: auto;"">
                                    <img src=""images/D66.png"" style= ""width:200px""alt=""img"">
                                </div>
                            </div>","-70","","0","images/D66.png","","","","[""Fine"",""Coarse""]"
"","","","","","html-slider-response","164","198079","0.0-156.0","nfqnfjue15","NaN","<div style=""width:500px;"">
                                <p style=""font-size:50px; font-weight:bold;""
                                ></p>
                                <div style=""width:240px; margin: auto;"">
                                    <img src=""images/D18.png"" style= ""width:200px""alt=""img"">
                                </div>
                            </div>","106","","0","images/D18.png","","","","[""Fine"",""Coarse""]"
"","","","","","html-slider-response","165","198963","0.0-157.0","nfqnfjue15","NaN","<div style=""width:500px;"">
                                <p style=""font-size:50px; font-weight:bold;""
                                ></p>
                                <div style=""width:240px; margin: auto;"">
                                    <img src=""images/D78.png"" style= ""width:200px""alt=""img"">
                                </div>
                            </div>","-125","","0","images/D78.png","","","","[""Fine"",""Coarse""]"
"","","","","","html-slider-response","166","199875","0.0-158.0","nfqnfjue15","NaN","<div style=""width:500px;"">
                                <p style=""font-size:50px; font-weight:bold;""
                                ></p>
                                <div style=""width:240px; margin: auto;"">
                                    <img src=""images/D56.png"" style= ""width:200px""alt=""img"">
                                </div>
                            </div>","112","","0","images/D56.png","","","","[""Fine"",""Coarse""]"
"","","","","","html-slider-response","167","200566","0.0-159.0","nfqnfjue15","NaN","<div style=""width:500px;"">
                                <p style=""font-size:50px; font-weight:bold;""
                                ></p>
                                <div style=""width:240px; margin: auto;"">
                                    <img src=""images/D96.png"" style= ""width:200px""alt=""img"">
                                </div>
                            </div>","-49","","0","images/D96.png","","","","[""Fine"",""Coarse""]"
"","","","","","html-slider-response","168","201353","0.0-160.0","nfqnfjue15","NaN","<div style=""width:500px;"">
                                <p style=""font-size:50px; font-weight:bold;""
                                ></p>
                                <div style=""width:240px; margin: auto;"">
                                    <img src=""images/D92.png"" style= ""width:200px""alt=""img"">
                                </div>
                            </div>","116","","0","images/D92.png","","","","[""Fine"",""Coarse""]"
"","","","","","html-slider-response","169","202192","0.0-161.0","nfqnfjue15","NaN","<div style=""width:500px;"">
                                <p style=""font-size:50px; font-weight:bold;""
                                ></p>
                                <div style=""width:240px; margin: auto;"">
                                    <img src=""images/D94.png"" style= ""width:200px""alt=""img"">
                                </div>
                            </div>","-126","","0","images/D94.png","","","","[""Fine"",""Coarse""]"
"","","","","","html-slider-response","170","202947","0.0-162.0","nfqnfjue15","NaN","<div style=""width:500px;"">
                                <p style=""font-size:50px; font-weight:bold;""
                                ></p>
                                <div style=""width:240px; margin: auto;"">
                                    <img src=""images/D85.png"" style= ""width:200px""alt=""img"">
                                </div>
                            </div>","93","","0","images/D85.png","","","","[""Fine"",""Coarse""]"
"","","","","","html-slider-response","171","203895","0.0-163.0","nfqnfjue15","NaN","<div style=""width:500px;"">
                                <p style=""font-size:50px; font-weight:bold;""
                                ></p>
                                <div style=""width:240px; margin: auto;"">
                                    <img src=""images/D21.png"" style= ""width:200px""alt=""img"">
                                </div>
                            </div>","90","","0","images/D21.png","","","","[""Fine"",""Coarse""]"
"","","","","","html-slider-response","172","204664","0.0-164.0","nfqnfjue15","NaN","<div style=""width:500px;"">
                                <p style=""font-size:50px; font-weight:bold;""
                                ></p>
                                <div style=""width:240px; margin: auto;"">
                                    <img src=""images/D64.png"" style= ""width:200px""alt=""img"">
                                </div>
                            </div>","-93","","0","images/D64.png","","","","[""Fine"",""Coarse""]"
"","","","","","html-slider-response","173","205356","0.0-165.0","nfqnfjue15","NaN","<div style=""width:500px;"">
                                <p style=""font-size:50px; font-weight:bold;""
                                ></p>
                                <div style=""width:240px; margin: auto;"">
                                    <img src=""images/D76.png"" style= ""width:200px""alt=""img"">
                                </div>
                            </div>","151","","0","images/D76.png","","","","[""Fine"",""Coarse""]"
"","","","","","html-slider-response","174","206181","0.0-166.0","nfqnfjue15","NaN","<div style=""width:500px;"">
                                <p style=""font-size:50px; font-weight:bold;""
                                ></p>
                                <div style=""width:240px; margin: auto;"">
                                    <img src=""images/D81.png"" style= ""width:200px""alt=""img"">
                                </div>
                            </div>","-64","","0","images/D81.png","","","","[""Fine"",""Coarse""]"
"","","","","","html-slider-response","175","207020","0.0-167.0","nfqnfjue15","NaN","<div style=""width:500px;"">
                                <p style=""font-size:50px; font-weight:bold;""
                                ></p>
                                <div style=""width:240px; margin: auto;"">
                                    <img src=""images/D52.png"" style= ""width:200px""alt=""img"">
                                </div>
                            </div>","86","","0","images/D52.png","","","","[""Fine"",""Coarse""]"
"","","","","","html-slider-response","176","207892","0.0-168.0","nfqnfjue15","NaN","<div style=""width:500px;"">
                                <p style=""font-size:50px; font-weight:bold;""
                                ></p>
                                <div style=""width:240px; margin: auto;"">
                                    <img src=""images/D51.png"" style= ""width:200px""alt=""img"">
                                </div>
                            </div>","-102","","0","images/D51.png","","","","[""Fine"",""Coarse""]"
"","","","","","html-slider-response","177","208544","0.0-169.0","nfqnfjue15","NaN","<div style=""width:500px;"">
                                <p style=""font-size:50px; font-weight:bold;""
                                ></p>
                                <div style=""width:240px; margin: auto;"">
                                    <img src=""images/D79.png"" style= ""width:200px""alt=""img"">
                                </div>
                            </div>","112","","0","images/D79.png","","","","[""Fine"",""Coarse""]"
"","","","","","html-slider-response","178","209218","0.0-170.0","nfqnfjue15","NaN","<div style=""width:500px;"">
                                <p style=""font-size:50px; font-weight:bold;""
                                ></p>
                                <div style=""width:240px; margin: auto;"">
                                    <img src=""images/D48.png"" style= ""width:200px""alt=""img"">
                                </div>
                            </div>","-40","","0","images/D48.png","","","","[""Fine"",""Coarse""]"
"","","","","","html-slider-response","179","209903","0.0-171.0","nfqnfjue15","NaN","<div style=""width:500px;"">
                                <p style=""font-size:50px; font-weight:bold;""
                                ></p>
                                <div style=""width:240px; margin: auto;"">
                                    <img src=""images/D4.png"" style= ""width:200px""alt=""img"">
                                </div>
                            </div>","99","","0","images/D4.png","","","","[""Fine"",""Coarse""]"
"","","","","","html-slider-response","180","210608","0.0-172.0","nfqnfjue15","NaN","<div style=""width:500px;"">
                                <p style=""font-size:50px; font-weight:bold;""
                                ></p>
                                <div style=""width:240px; margin: auto;"">
                                    <img src=""images/D34.png"" style= ""width:200px""alt=""img"">
                                </div>
                            </div>","-143","","0","images/D34.png","","","","[""Fine"",""Coarse""]"
"","","","","","html-slider-response","181","211293","0.0-173.0","nfqnfjue15","NaN","<div style=""width:500px;"">
                                <p style=""font-size:50px; font-weight:bold;""
                                ></p>
                                <div style=""width:240px; margin: auto;"">
                                    <img src=""images/D74.png"" style= ""width:200px""alt=""img"">
                                </div>
                            </div>","166","","0","images/D74.png","","","","[""Fine"",""Coarse""]"
"","","","","","html-slider-response","182","212039","0.0-174.0","nfqnfjue15","NaN","<div style=""width:500px;"">
                                <p style=""font-size:50px; font-weight:bold;""
                                ></p>
                                <div style=""width:240px; margin: auto;"">
                                    <img src=""images/D36.png"" style= ""width:200px""alt=""img"">
                                </div>
                            </div>","-130","","0","images/D36.png","","","","[""Fine"",""Coarse""]"
"","","","","","html-slider-response","183","213011","0.0-175.0","nfqnfjue15","NaN","<div style=""width:500px;"">
                                <p style=""font-size:50px; font-weight:bold;""
                                ></p>
                                <div style=""width:240px; margin: auto;"">
                                    <img src=""images/D22.png"" style= ""width:200px""alt=""img"">
                                </div>
                            </div>","19","","0","images/D22.png","","","","[""Fine"",""Coarse""]"
"","","","","","html-slider-response","184","213969","0.0-176.0","nfqnfjue15","NaN","<div style=""width:500px;"">
                                <p style=""font-size:50px; font-weight:bold;""
                                ></p>
                                <div style=""width:240px; margin: auto;"">
                                    <img src=""images/D49.png"" style= ""width:200px""alt=""img"">
                                </div>
                            </div>","-86","","0","images/D49.png","","","","[""Fine"",""Coarse""]"
"","","","","","html-slider-response","185","214707","0.0-177.0","nfqnfjue15","NaN","<div style=""width:500px;"">
                                <p style=""font-size:50px; font-weight:bold;""
                                ></p>
                                <div style=""width:240px; margin: auto;"">
                                    <img src=""images/D25.png"" style= ""width:200px""alt=""img"">
                                </div>
                            </div>","134","","0","images/D25.png","","","","[""Fine"",""Coarse""]"
"","","","","","html-slider-response","186","215438","0.0-178.0","nfqnfjue15","NaN","<div style=""width:500px;"">
                                <p style=""font-size:50px; font-weight:bold;""
                                ></p>
                                <div style=""width:240px; margin: auto;"">
                                    <img src=""images/D16.png"" style= ""width:200px""alt=""img"">
                                </div>
                            </div>","-94","","0","images/D16.png","","","","[""Fine"",""Coarse""]"
"","","","","","html-slider-response","187","216182","0.0-179.0","nfqnfjue15","NaN","<div style=""width:500px;"">
                                <p style=""font-size:50px; font-weight:bold;""
                                ></p>
                                <div style=""width:240px; margin: auto;"">
                                    <img src=""images/D95.png"" style= ""width:200px""alt=""img"">
                                </div>
                            </div>","117","","0","images/D95.png","","","","[""Fine"",""Coarse""]"
"","","","","","html-slider-response","188","216953","0.0-180.0","nfqnfjue15","NaN","<div style=""width:500px;"">
                                <p style=""font-size:50px; font-weight:bold;""
                                ></p>
                                <div style=""width:240px; margin: auto;"">
                                    <img src=""images/D103.png"" style= ""width:200px""alt=""img"">
                                </div>
                            </div>","-98","","0","images/D103.png","","","","[""Fine"",""Coarse""]"
"","","","","","html-slider-response","189","217646","0.0-181.0","nfqnfjue15","NaN","<div style=""width:500px;"">
                                <p style=""font-size:50px; font-weight:bold;""
                                ></p>
                                <div style=""width:240px; margin: auto;"">
