"success","timeout","failed_images","failed_audio","failed_video","trial_type","trial_index","time_elapsed","internal_node_id","subject_id","rt","stimulus","response","question_order","slider_start","image_path","practiceTrial","practiceTrialNum","correct","slider_labels"
"true","false","[]","[]","[]","preload","0","3700","0.0-0.0","nudt9whlb0","","","","","","","","","",""
"","","","","","html-button-response","1","8119","0.0-1.0","nudt9whlb0","4417","<div style='text-align:center; font-size:20px; line-height:25px; width: 1200px;'>
                Welcome to our experiment! <br>
                <br>At the bottom of this screen, you will see a button that says 'Begin Experiment.
                <br>Please only click that button when you are ready to complete the 25 minute experiment in one sitting. <br>
                <br> Once you click that button, it will not be possible to restart the experiment. <br><br>","0","","","","","","",""
"true","","","","","fullscreen","2","10494","0.0-2.0","nudt9whlb0","1371","","","","","","","","",""
"","","","","","survey-multi-select","3","14928","0.0-3.0","nudt9whlb0","4427","","{""Consent"":[""<strong>I consent</strong>""]}","[0]","","","","","",""
"","","","","","html-button-response","4","16884","0.0-4.0","nudt9whlb0","1955","Welcome! <p> This experiment involves two parts: demographic information, followed by the experimental task.<p> It will take about 25 minutes to complete both parts.","0","","","","","","",""
"","","","","","survey-text","5","31773","0.0-5.0","nudt9whlb0","14887","","{""Age"":""19"",""Gender"":""Female"",""Race/ethnicity"":""White/Asian""}","","","","","","",""
"","","","","","html-slider-response","6","38453","0.0-6.0","nudt9whlb0","6679","
                <div style='text-align:center; height: auto; margin-left=-100px; margin-bottom: -20px; font-size:20px; line-height:5px; width: 1200px;'>
                    <br>During this experiment, you will see a series of textures, one at a time, like the ones below: 
                </div>
                    <br>
                    <br>
                    <img src=""anchoring_visual_textures.png"" alt=""img"" style=""max-width:1200px; margin-left: -10px;"">
                </div>
                <div style=""clear: both;""></div>
                </div>
                    <div style='text-align:center; margin-left=-100px; font-size:20px; line-height:20px; width: 1200px; margin-top: -50px;'>
                    
                    <br> For each texture, you will be asked to rate where you think it falls on each of the response scales with the following endpoints:
                    </div>
                            <div style=""text-align: center; width: 1400px; "">
                                <p style=""font-size:20px; line-height:5px; ""><b>Stripey</b> versus <b>Blobby</b></p>
                                <p style=""font-size:20px; line-height:5px; ""><b>Rectangular</b> versus <b>Rounded</b></p>
                                <p style=""font-size:20px;line-height:5px;""><b>Fine</b> versus <b>Coarse</b></p>
                                <p style=""font-size:20px;line-height:5px; ""><b>Smooth</b> versus <b>Rough</b></p>
                                <p style=""font-size:20px;line-height:5px; ""><b>Non-Random</b> versus <b>Random</b></p>
                                <p style=""font-size:20px;line-height:5px;""><b>Soft</b> versus <b>Hard</b></p>
                            </div>
                            <div style='text-align:center; font-size:20px; line-height:20px; width: 1400px;'>
                    
                    Each trial will include one texture and one response scale. You will be asked to make your rating by sliding the cursor along a slider response scale like the one below.
                    <br><br> Before beginning, please look at the textures and scales. For each scale, think about the texture you associate most with the left endpoint. When you see that texture for that response scale, please click near the left of the scale.
                    <br><br> Now, please think about the texture you associate most with the right endpoint of each scale. When you see that texture for that response scale, please click near the right of the scale. 
                    <br><br> If you think a texture is not strongly associated with either endpoint of the scale, please click near the midpoint of the scale. Please use the full range of the scale. 
                    <br><br> You will be asked to rate each texture for a given scale before moving on to the next scale.
                    <br><br> Please press the 'Continue' button for instructions on how to use the slider.                     <br><br>
                ","null","","0","visual_textures_anchoring.png","true","","",""
"","","","","","html-button-response","7","39741","0.0-7.0","nudt9whlb0","1287","<div style=""width:1200px; margin-top:-150px;""><p style=""text-align:center; font-size:24px;"">To move the slider, click and drag your cursor to the location of the scale where you would like to make your rating and then let go. <br><br> When you let go of the slider, your response will be recorded and the next trial will begin. <br><br><br>
                We are interested in your initial impressions of each texture and scale, so please go with your first intuition. <br><br>
                Before you begin the experiment, there will be four training trials for you to practice using the scale. <br><br><br><br></div>
                <div style=""width:1200px;""><p style=""text-align:center; font-size:20px;"">When you are ready to start the training trials, please click ""Continue"".</p></div>","0","","","","","","",""
"","","","","","html-slider-response","8","42209","0.0-8.0-0.0","nudt9whlb0","NaN","<div style=""width:500px;"">
                                <p style=""font-size:25px;"">Please move the slider all the way to the <br> right endpoint of the scale</p>

                                </div>
                            </div>","200","","0","","true","0","true",""
"","","","","","html-button-response","9","43236","0.0-8.0-1.0","nudt9whlb0","523","<p align='center'><b>Good job!</b> Click on 'Continue' to proceed.</p>","0","","","","","","",""
"","","","","","html-slider-response","10","44568","0.0-9.0-0.0","nudt9whlb0","NaN","<div style=""width:500px;"">
                                <p style=""font-size:25px;"">Please move the slider all the way to the <br> left endpoint of the scale</p>

                                </div>
                            </div>","-200","","0","","true","1","true",""
"","","","","","html-button-response","11","45804","0.0-9.0-1.0","nudt9whlb0","734","<p align='center'><b>Good job!</b> Click on 'Continue' to proceed.</p>","0","","","","","","",""
"","","","","","html-slider-response","12","49202","0.0-10.0-0.0","nudt9whlb0","NaN","<div style=""width:500px;"">
                                <p style=""font-size:25px;"">Please move the slider halfway between the center and right endpoint of the scale</p>

                                </div>
                            </div>","3","","0","","true","2","false",""
"","","","","","html-button-response","13","52572","0.0-10.0-1.0","nudt9whlb0","2866","<p align='center'><b>Not quite!</b> The slider was not placed near the instructed locattion. Click on 'Continue' to try again. </p>","0","","","","","","",""
"","","","","","html-slider-response","14","57803","0.0-10.1-0.1","nudt9whlb0","NaN","<div style=""width:500px;"">
                                <p style=""font-size:25px;"">Please move the slider halfway between the center and right endpoint of the scale</p>

                                </div>
                            </div>","108","","0","","true","2","true",""
"","","","","","html-button-response","15","59126","0.0-10.1-1.1","nudt9whlb0","821","<p align='center'><b>Good job!</b> Click on 'Continue' to proceed.</p>","0","","","","","","",""
"","","","","","html-slider-response","16","61479","0.0-11.0-0.0","nudt9whlb0","NaN","<div style=""width:500px;"">
                                <p style=""font-size:25px;"">Please move the slider halfway between the center and left endpoint of the scale</p>

                                </div>
                            </div>","-108","","0","","true","3","true",""
"","","","","","html-button-response","17","63047","0.0-11.0-1.0","nudt9whlb0","1066","<p align='center'><b>Good job!</b> Click on 'Continue' to proceed.</p>","0","","","","","","",""
"","","","","","html-button-response","18","64034","0.0-12.0","nudt9whlb0","986","<div style=""width:800px; margin-top:-300px;""><p style=""text-align:center; font-size:22px; line-height:25px;""""> Great job! You've completed the practice trials.</div>
                     <div style=""width:800px; margin-top:-20px;""><p style=""text-align:center""><br><br> In the following trials, you will be asked to rate textures on each scale one-by-one. <br> You will be given opportunities to take breaks when you have completed each block of trials. There are six total blocks of trials. <br><br> Please click continue to begin the main task.<br><br><br> </div>","0","","","","","","",""
"","","","","","html-button-response","19","64982","0.0-13.0","nudt9whlb0","947","In the following trials, you will be asked to rate textures on the scale <b>Rectangular</b> versus <b>Rounded</b>. Please click 'Continue' when you are ready proceed.","0","","","","","","",""
"","","","","","html-slider-response","20","67505","0.0-14.0","nudt9whlb0","NaN","<div style=""width:500px;"">
                                <p style=""font-size:50px; font-weight:bold;""
                                ></p>
                                <div style=""width:240px; margin: auto;"">
                                    <img src=""images/D77.png"" style= ""width:200px""alt=""img"">
                                </div>
                            </div>","-179","","0","images/D77.png","","","","[""Rectangular"",""Rounded""]"
"","","","","","html-slider-response","21","70361","0.0-15.0","nudt9whlb0","NaN","<div style=""width:500px;"">
                                <p style=""font-size:50px; font-weight:bold;""
                                ></p>
                                <div style=""width:240px; margin: auto;"">
                                    <img src=""images/D1.png"" style= ""width:200px""alt=""img"">
                                </div>
                            </div>","-168","","0","images/D1.png","","","","[""Rectangular"",""Rounded""]"
"","","","","","html-slider-response","22","72514","0.0-16.0","nudt9whlb0","NaN","<div style=""width:500px;"">
                                <p style=""font-size:50px; font-weight:bold;""
                                ></p>
                                <div style=""width:240px; margin: auto;"">
                                    <img src=""images/D66.png"" style= ""width:200px""alt=""img"">
                                </div>
                            </div>","128","","0","images/D66.png","","","","[""Rectangular"",""Rounded""]"
"","","","","","html-slider-response","23","74769","0.0-17.0","nudt9whlb0","NaN","<div style=""width:500px;"">
                                <p style=""font-size:50px; font-weight:bold;""
                                ></p>
                                <div style=""width:240px; margin: auto;"">
                                    <img src=""images/D26.png"" style= ""width:200px""alt=""img"">
                                </div>
                            </div>","-198","","0","images/D26.png","","","","[""Rectangular"",""Rounded""]"
"","","","","","html-slider-response","24","78742","0.0-18.0","nudt9whlb0","NaN","<div style=""width:500px;"">
                                <p style=""font-size:50px; font-weight:bold;""
                                ></p>
                                <div style=""width:240px; margin: auto;"">
                                    <img src=""images/D104.png"" style= ""width:200px""alt=""img"">
                                </div>
                            </div>","12","","0","images/D104.png","","","","[""Rectangular"",""Rounded""]"
"","","","","","html-slider-response","25","81423","0.0-19.0","nudt9whlb0","NaN","<div style=""width:500px;"">
                                <p style=""font-size:50px; font-weight:bold;""
                                ></p>
                                <div style=""width:240px; margin: auto;"">
                                    <img src=""images/D36.png"" style= ""width:200px""alt=""img"">
                                </div>
                            </div>","200","","0","images/D36.png","","","","[""Rectangular"",""Rounded""]"
"","","","","","html-slider-response","26","83359","0.0-20.0","nudt9whlb0","NaN","<div style=""width:500px;"">
                                <p style=""font-size:50px; font-weight:bold;""
                                ></p>
                                <div style=""width:240px; margin: auto;"">
                                    <img src=""images/D94.png"" style= ""width:200px""alt=""img"">
                                </div>
                            </div>","-200","","0","images/D94.png","","","","[""Rectangular"",""Rounded""]"
"","","","","","html-slider-response","27","86317","0.0-21.0","nudt9whlb0","NaN","<div style=""width:500px;"">
                                <p style=""font-size:50px; font-weight:bold;""
                                ></p>
                                <div style=""width:240px; margin: auto;"">
                                    <img src=""images/D74.png"" style= ""width:200px""alt=""img"">
                                </div>
                            </div>","200","","0","images/D74.png","","","","[""Rectangular"",""Rounded""]"
"","","","","","html-slider-response","28","89365","0.0-22.0","nudt9whlb0","NaN","<div style=""width:500px;"">
                                <p style=""font-size:50px; font-weight:bold;""
                                ></p>
                                <div style=""width:240px; margin: auto;"">
                                    <img src=""images/D11.png"" style= ""width:200px""alt=""img"">
                                </div>
                            </div>","-61","","0","images/D11.png","","","","[""Rectangular"",""Rounded""]"
"","","","","","html-slider-response","29","92328","0.0-23.0","nudt9whlb0","NaN","<div style=""width:500px;"">
                                <p style=""font-size:50px; font-weight:bold;""
                                ></p>
                                <div style=""width:240px; margin: auto;"">
                                    <img src=""images/D65.png"" style= ""width:200px""alt=""img"">
                                </div>
                            </div>","-111","","0","images/D65.png","","","","[""Rectangular"",""Rounded""]"
"","","","","","html-slider-response","30","94406","0.0-24.0","nudt9whlb0","NaN","<div style=""width:500px;"">
                                <p style=""font-size:50px; font-weight:bold;""
                                ></p>
                                <div style=""width:240px; margin: auto;"">
                                    <img src=""images/D84.png"" style= ""width:200px""alt=""img"">
                                </div>
                            </div>","-117","","0","images/D84.png","","","","[""Rectangular"",""Rounded""]"
"","","","","","html-slider-response","31","97350","0.0-25.0","nudt9whlb0","NaN","<div style=""width:500px;"">
                                <p style=""font-size:50px; font-weight:bold;""
                                ></p>
                                <div style=""width:240px; margin: auto;"">
                                    <img src=""images/D105.png"" style= ""width:200px""alt=""img"">
                                </div>
                            </div>","-113","","0","images/D105.png","","","","[""Rectangular"",""Rounded""]"
"","","","","","html-slider-response","32","100889","0.0-26.0","nudt9whlb0","NaN","<div style=""width:500px;"">
                                <p style=""font-size:50px; font-weight:bold;""
                                ></p>
                                <div style=""width:240px; margin: auto;"">
                                    <img src=""images/D75.png"" style= ""width:200px""alt=""img"">
                                </div>
                            </div>","200","","0","images/D75.png","","","","[""Rectangular"",""Rounded""]"
"","","","","","html-slider-response","33","103272","0.0-27.0","nudt9whlb0","NaN","<div style=""width:500px;"">
                                <p style=""font-size:50px; font-weight:bold;""
                                ></p>
                                <div style=""width:240px; margin: auto;"">
                                    <img src=""images/D3.png"" style= ""width:200px""alt=""img"">
                                </div>
                            </div>","27","","0","images/D3.png","","","","[""Rectangular"",""Rounded""]"
"","","","","","html-slider-response","34","105922","0.0-28.0","nudt9whlb0","NaN","<div style=""width:500px;"">
                                <p style=""font-size:50px; font-weight:bold;""
                                ></p>
                                <div style=""width:240px; margin: auto;"">
                                    <img src=""images/D51.png"" style= ""width:200px""alt=""img"">
                                </div>
                            </div>","-31","","0","images/D51.png","","","","[""Rectangular"",""Rounded""]"
"","","","","","html-slider-response","35","108110","0.0-29.0","nudt9whlb0","NaN","<div style=""width:500px;"">
                                <p style=""font-size:50px; font-weight:bold;""
                                ></p>
                                <div style=""width:240px; margin: auto;"">
                                    <img src=""images/D53.png"" style= ""width:200px""alt=""img"">
                                </div>
                            </div>","-114","","0","images/D53.png","","","","[""Rectangular"",""Rounded""]"
"","","","","","html-slider-response","36","110854","0.0-30.0","nudt9whlb0","NaN","<div style=""width:500px;"">
                                <p style=""font-size:50px; font-weight:bold;""
                                ></p>
                                <div style=""width:240px; margin: auto;"">
                                    <img src=""images/D80.png"" style= ""width:200px""alt=""img"">
                                </div>
                            </div>","-122","","0","images/D80.png","","","","[""Rectangular"",""Rounded""]"
"","","","","","html-slider-response","37","112557","0.0-31.0","nudt9whlb0","NaN","<div style=""width:500px;"">
                                <p style=""font-size:50px; font-weight:bold;""
                                ></p>
                                <div style=""width:240px; margin: auto;"">
                                    <img src=""images/D102.png"" style= ""width:200px""alt=""img"">
                                </div>
                            </div>","108","","0","images/D102.png","","","","[""Rectangular"",""Rounded""]"
"","","","","","html-slider-response","38","116402","0.0-32.0","nudt9whlb0","NaN","<div style=""width:500px;"">
                                <p style=""font-size:50px; font-weight:bold;""
                                ></p>
                                <div style=""width:240px; margin: auto;"">
                                    <img src=""images/D8.png"" style= ""width:200px""alt=""img"">
                                </div>
                            </div>","39","","0","images/D8.png","","","","[""Rectangular"",""Rounded""]"
"","","","","","html-slider-response","39","118947","0.0-33.0","nudt9whlb0","NaN","<div style=""width:500px;"">
                                <p style=""font-size:50px; font-weight:bold;""
                                ></p>
                                <div style=""width:240px; margin: auto;"">
                                    <img src=""images/D24.png"" style= ""width:200px""alt=""img"">
                                </div>
                            </div>","2","","0","images/D24.png","","","","[""Rectangular"",""Rounded""]"
"","","","","","html-slider-response","40","121214","0.0-34.0","nudt9whlb0","NaN","<div style=""width:500px;"">
                                <p style=""font-size:50px; font-weight:bold;""
                                ></p>
                                <div style=""width:240px; margin: auto;"">
                                    <img src=""images/D29.png"" style= ""width:200px""alt=""img"">
                                </div>
                            </div>","42","","0","images/D29.png","","","","[""Rectangular"",""Rounded""]"
"","","","","","html-slider-response","41","123166","0.0-35.0","nudt9whlb0","NaN","<div style=""width:500px;"">
                                <p style=""font-size:50px; font-weight:bold;""
                                ></p>
                                <div style=""width:240px; margin: auto;"">
                                    <img src=""images/D35.png"" style= ""width:200px""alt=""img"">
                                </div>
                            </div>","74","","0","images/D35.png","","","","[""Rectangular"",""Rounded""]"
"","","","","","html-slider-response","42","125671","0.0-36.0","nudt9whlb0","NaN","<div style=""width:500px;"">
                                <p style=""font-size:50px; font-weight:bold;""
                                ></p>
                                <div style=""width:240px; margin: auto;"">
                                    <img src=""images/D55.png"" style= ""width:200px""alt=""img"">
                                </div>
                            </div>","-63","","0","images/D55.png","","","","[""Rectangular"",""Rounded""]"
"","","","","","html-slider-response","43","127671","0.0-37.0","nudt9whlb0","NaN","<div style=""width:500px;"">
                                <p style=""font-size:50px; font-weight:bold;""
                                ></p>
                                <div style=""width:240px; margin: auto;"">
                                    <img src=""images/D79.png"" style= ""width:200px""alt=""img"">
                                </div>
                            </div>","-53","","0","images/D79.png","","","","[""Rectangular"",""Rounded""]"
"","","","","","html-slider-response","44","129372","0.0-38.0","nudt9whlb0","NaN","<div style=""width:500px;"">
                                <p style=""font-size:50px; font-weight:bold;""
                                ></p>
                                <div style=""width:240px; margin: auto;"">
                                    <img src=""images/D37.png"" style= ""width:200px""alt=""img"">
                                </div>
                            </div>","71","","0","images/D37.png","","","","[""Rectangular"",""Rounded""]"
"","","","","","html-slider-response","45","131060","0.0-39.0","nudt9whlb0","NaN","<div style=""width:500px;"">
                                <p style=""font-size:50px; font-weight:bold;""
                                ></p>
                                <div style=""width:240px; margin: auto;"">
                                    <img src=""images/D82.png"" style= ""width:200px""alt=""img"">
                                </div>
                            </div>","-38","","0","images/D82.png","","","","[""Rectangular"",""Rounded""]"
"","","","","","html-slider-response","46","132832","0.0-40.0","nudt9whlb0","NaN","<div style=""width:500px;"">
                                <p style=""font-size:50px; font-weight:bold;""
                                ></p>
                                <div style=""width:240px; margin: auto;"">
                                    <img src=""images/D47.png"" style= ""width:200px""alt=""img"">
                                </div>
                            </div>","-135","","0","images/D47.png","","","","[""Rectangular"",""Rounded""]"
"","","","","","html-slider-response","47","134744","0.0-41.0","nudt9whlb0","NaN","<div style=""width:500px;"">
                                <p style=""font-size:50px; font-weight:bold;""
                                ></p>
                                <div style=""width:240px; margin: auto;"">
                                    <img src=""images/D64.png"" style= ""width:200px""alt=""img"">
                                </div>
                            </div>","-143","","0","images/D64.png","","","","[""Rectangular"",""Rounded""]"
"","","","","","html-slider-response","48","136488","0.0-42.0","nudt9whlb0","NaN","<div style=""width:500px;"">
                                <p style=""font-size:50px; font-weight:bold;""
                                ></p>
                                <div style=""width:240px; margin: auto;"">
                                    <img src=""images/D9.png"" style= ""width:200px""alt=""img"">
                                </div>
                            </div>","42","","0","images/D9.png","","","","[""Rectangular"",""Rounded""]"
"","","","","","html-slider-response","49","138214","0.0-43.0","nudt9whlb0","NaN","<div style=""width:500px;"">
                                <p style=""font-size:50px; font-weight:bold;""
                                ></p>
                                <div style=""width:240px; margin: auto;"">
                                    <img src=""images/D48.png"" style= ""width:200px""alt=""img"">
                                </div>
                            </div>","190","","0","images/D48.png","","","","[""Rectangular"",""Rounded""]"
"","","","","","html-slider-response","50","139928","0.0-44.0","nudt9whlb0","NaN","<div style=""width:500px;"">
                                <p style=""font-size:50px; font-weight:bold;""
                                ></p>
                                <div style=""width:240px; margin: auto;"">
                                    <img src=""images/D95.png"" style= ""width:200px""alt=""img"">
                                </div>
                            </div>","-200","","0","images/D95.png","","","","[""Rectangular"",""Rounded""]"
"","","","","","html-slider-response","51","141932","0.0-45.0","nudt9whlb0","NaN","<div style=""width:500px;"">
                                <p style=""font-size:50px; font-weight:bold;""
                                ></p>
                                <div style=""width:240px; margin: auto;"">
                                    <img src=""images/D14.png"" style= ""width:200px""alt=""img"">
                                </div>
                            </div>","-73","","0","images/D14.png","","","","[""Rectangular"",""Rounded""]"
"","","","","","html-slider-response","52","143714","0.0-46.0","nudt9whlb0","NaN","<div style=""width:500px;"">
                                <p style=""font-size:50px; font-weight:bold;""
                                ></p>
                                <div style=""width:240px; margin: auto;"">
                                    <img src=""images/D83.png"" style= ""width:200px""alt=""img"">
                                </div>
                            </div>","-98","","0","images/D83.png","","","","[""Rectangular"",""Rounded""]"
"","","","","","html-slider-response","53","145827","0.0-47.0","nudt9whlb0","NaN","<div style=""width:500px;"">
                                <p style=""font-size:50px; font-weight:bold;""
                                ></p>
                                <div style=""width:240px; margin: auto;"">
                                    <img src=""images/D16.png"" style= ""width:200px""alt=""img"">
                                </div>
                            </div>","-54","","0","images/D16.png","","","","[""Rectangular"",""Rounded""]"
"","","","","","html-slider-response","54","147828","0.0-48.0","nudt9whlb0","NaN","<div style=""width:500px;"">
                                <p style=""font-size:50px; font-weight:bold;""
                                ></p>
                                <div style=""width:240px; margin: auto;"">
                                    <img src=""images/D34.png"" style= ""width:200px""alt=""img"">
                                </div>
                            </div>","150","","0","images/D34.png","","","","[""Rectangular"",""Rounded""]"
"","","","","","html-slider-response","55","150725","0.0-49.0","nudt9whlb0","NaN","<div style=""width:500px;"">
                                <p style=""font-size:50px; font-weight:bold;""
                                ></p>
                                <div style=""width:240px; margin: auto;"">
                                    <img src=""images/D32.png"" style= ""width:200px""alt=""img"">
                                </div>
                            </div>","39","","0","images/D32.png","","","","[""Rectangular"",""Rounded""]"
"","","","","","html-slider-response","56","152871","0.0-50.0","nudt9whlb0","NaN","<div style=""width:500px;"">
                                <p style=""font-size:50px; font-weight:bold;""
                                ></p>
                                <div style=""width:240px; margin: auto;"">
                                    <img src=""images/D56.png"" style= ""width:200px""alt=""img"">
                                </div>
                            </div>","121","","0","images/D56.png","","","","[""Rectangular"",""Rounded""]"
"","","","","","html-slider-response","57","155113","0.0-51.0","nudt9whlb0","NaN","<div style=""width:500px;"">
                                <p style=""font-size:50px; font-weight:bold;""
                                ></p>
                                <div style=""width:240px; margin: auto;"">
                                    <img src=""images/D25.png"" style= ""width:200px""alt=""img"">
                                </div>
                            </div>","-200","","0","images/D25.png","","","","[""Rectangular"",""Rounded""]"
"","","","","","html-slider-response","58","157243","0.0-52.0","nudt9whlb0","NaN","<div style=""width:500px;"">
                                <p style=""font-size:50px; font-weight:bold;""
                                ></p>
                                <div style=""width:240px; margin: auto;"">
                                    <img src=""images/D6.png"" style= ""width:200px""alt=""img"">
                                </div>
                            </div>","63","","0","images/D6.png","","","","[""Rectangular"",""Rounded""]"
"","","","","","html-slider-response","59","158937","0.0-53.0","nudt9whlb0","NaN","<div style=""width:500px;"">
                                <p style=""font-size:50px; font-weight:bold;""
                                ></p>
                                <div style=""width:240px; margin: auto;"">
                                    <img src=""images/D101.png"" style= ""width:200px""alt=""img"">
                                </div>
                            </div>","200","","0","images/D101.png","","","","[""Rectangular"",""Rounded""]"
"","","","","","html-slider-response","60","163779","0.0-54.0","nudt9whlb0","NaN","<div style=""width:500px;"">
                                <p style=""font-size:50px; font-weight:bold;""
                                ></p>
                                <div style=""width:240px; margin: auto;"">
                                    <img src=""images/D87.png"" style= ""width:200px""alt=""img"">
                                </div>
                            </div>","74","","0","images/D87.png","","","","[""Rectangular"",""Rounded""]"
"","","","","","html-slider-response","61","166408","0.0-55.0","nudt9whlb0","NaN","<div style=""width:500px;"">
                                <p style=""font-size:50px; font-weight:bold;""
                                ></p>
                                <div style=""width:240px; margin: auto;"">
                                    <img src=""images/D22.png"" style= ""width:200px""alt=""img"">
                                </div>
                            </div>","111","","0","images/D22.png","","","","[""Rectangular"",""Rounded""]"
"","","","","","html-slider-response","62","168430","0.0-56.0","nudt9whlb0","NaN","<div style=""width:500px;"">
                                <p style=""font-size:50px; font-weight:bold;""
                                ></p>
                                <div style=""width:240px; margin: auto;"">
                                    <img src=""images/D46.png"" style= ""width:200px""alt=""img"">
                                </div>
                            </div>","-75","","0","images/D46.png","","","","[""Rectangular"",""Rounded""]"
"","","","","","html-slider-response","63","171624","0.0-57.0","nudt9whlb0","NaN","<div style=""width:500px;"">
                                <p style=""font-size:50px; font-weight:bold;""
                                ></p>
                                <div style=""width:240px; margin: auto;"">
                                    <img src=""images/D52.png"" style= ""width:200px""alt=""img"">
                                </div>
                            </div>","-90","","0","images/D52.png","","","","[""Rectangular"",""Rounded""]"
"","","","","","html-slider-response","64","194016","0.0-58.0","nudt9whlb0","NaN","<div style=""width:500px;"">
                                <p style=""font-size:50px; font-weight:bold;""
                                ></p>
                                <div style=""width:240px; margin: auto;"">
                                    <img src=""images/D4.png"" style= ""width:200px""alt=""img"">
                                </div>
                            </div>","98","","0","images/D4.png","","","","[""Rectangular"",""Rounded""]"
"","","","","","html-slider-response","65","196627","0.0-59.0","nudt9whlb0","NaN","<div style=""width:500px;"">
                                <p style=""font-size:50px; font-weight:bold;""
                                ></p>
                                <div style=""width:240px; margin: auto;"">
                                    <img src=""images/D49.png"" style= ""width:200px""alt=""img"">
                                </div>
                            </div>","-106","","0","images/D49.png","","","","[""Rectangular"",""Rounded""]"
"","","","","","html-slider-response","66","201471","0.0-60.0","nudt9whlb0","NaN","<div style=""width:500px;"">
                                <p style=""font-size:50px; font-weight:bold;""
                                ></p>
                                <div style=""width:240px; margin: auto;"">
                                    <img src=""images/D18.png"" style= ""width:200px""alt=""img"">
                                </div>
                            </div>","-145","","0","images/D18.png","","","","[""Rectangular"",""Rounded""]"
"","","","","","html-slider-response","67","207487","0.0-61.0","nudt9whlb0","NaN","<div style=""width:500px;"">
                                <p style=""font-size:50px; font-weight:bold;""
                                ></p>
                                <div style=""width:240px; margin: auto;"">
                                    <img src=""images/D85.png"" style= ""width:200px""alt=""img"">
                                </div>
                            </div>","-146","","0","images/D85.png","","","","[""Rectangular"",""Rounded""]"
"","","","","","html-slider-response","68","210377","0.0-62.0","nudt9whlb0","NaN","<div style=""width:500px;"">
                                <p style=""font-size:50px; font-weight:bold;""
                                ></p>
                                <div style=""width:240px; margin: auto;"">
                                    <img src=""images/D68.png"" style= ""width:200px""alt=""img"">
                                </div>
                            </div>","103","","0","images/D68.png","","","","[""Rectangular"",""Rounded""]"
"","","","","","html-slider-response","69","213200","0.0-63.0","nudt9whlb0","NaN","<div style=""width:500px;"">
                                <p style=""font-size:50px; font-weight:bold;""
                                ></p>
                                <div style=""width:240px; margin: auto;"">
                                    <img src=""images/D103.png"" style= ""width:200px""alt=""img"">
                                </div>
                            </div>","-130","","0","images/D103.png","","","","[""Rectangular"",""Rounded""]"
"","","","","","html-slider-response","70","216431","0.0-64.0","nudt9whlb0","NaN","<div style=""width:500px;"">
                                <p style=""font-size:50px; font-weight:bold;""
                                ></p>
                                <div style=""width:240px; margin: auto;"">
                                    <img src=""images/D21.png"" style= ""width:200px""alt=""img"">
                                </div>
                            </div>","-64","","0","images/D21.png","","","","[""Rectangular"",""Rounded""]"
"","","","","","html-slider-response","71","218407","0.0-65.0","nudt9whlb0","NaN","<div style=""width:500px;"">
                                <p style=""font-size:50px; font-weight:bold;""
                                ></p>
                                <div style=""width:240px; margin: auto;"">
                                    <img src=""images/D111.png"" style= ""width:200px""alt=""img"">
                                </div>
                            </div>","102","","0","images/D111.png","","","","[""Rectangular"",""Rounded""]"
"","","","","","html-slider-response","72","222103","0.0-66.0","nudt9whlb0","NaN","<div style=""width:500px;"">
                                <p style=""font-size:50px; font-weight:bold;""
                                ></p>
                                <div style=""width:240px; margin: auto;"">
                                    <img src=""images/D19.png"" style= ""width:200px""alt=""img"">
                                </div>
                            </div>","95","","0","images/D19.png","","","","[""Rectangular"",""Rounded""]"
"","","","","","html-slider-response","73","224339","0.0-67.0","nudt9whlb0","NaN","<div style=""width:500px;"">
                                <p style=""font-size:50px; font-weight:bold;""
                                ></p>
                                <div style=""width:240px; margin: auto;"">
                                    <img src=""images/D78.png"" style= ""width:200px""alt=""img"">
                                </div>
                            </div>","-117","","0","images/D78.png","","","","[""Rectangular"",""Rounded""]"
"","","","","","html-slider-response","74","226462","0.0-68.0","nudt9whlb0","NaN","<div style=""width:500px;"">
                                <p style=""font-size:50px; font-weight:bold;""
                                ></p>
                                <div style=""width:240px; margin: auto;"">
                                    <img src=""images/D20.png"" style= ""width:200px""alt=""img"">
                                </div>
                            </div>","-138","","0","images/D20.png","","","","[""Rectangular"",""Rounded""]"
"","","","","","html-slider-response","75","228578","0.0-69.0","nudt9whlb0","NaN","<div style=""width:500px;"">
                                <p style=""font-size:50px; font-weight:bold;""
                                ></p>
                                <div style=""width:240px; margin: auto;"">
                                    <img src=""images/D92.png"" style= ""width:200px""alt=""img"">
                                </div>
                            </div>","59","","0","images/D92.png","","","","[""Rectangular"",""Rounded""]"
"","","","","","html-slider-response","76","230488","0.0-70.0","nudt9whlb0","NaN","<div style=""width:500px;"">
                                <p style=""font-size:50px; font-weight:bold;""
                                ></p>
                                <div style=""width:240px; margin: auto;"">
                                    <img src=""images/D81.png"" style= ""width:200px""alt=""img"">
                                </div>
                            </div>","70","","0","images/D81.png","","","","[""Rectangular"",""Rounded""]"
"","","","","","html-slider-response","77","232077","0.0-71.0","nudt9whlb0","NaN","<div style=""width:500px;"">
                                <p style=""font-size:50px; font-weight:bold;""
                                ></p>
                                <div style=""width:240px; margin: auto;"">
                                    <img src=""images/D57.png"" style= ""width:200px""alt=""img"">
                                </div>
                            </div>","86","","0","images/D57.png","","","","[""Rectangular"",""Rounded""]"
"","","","","","html-slider-response","78","235310","0.0-72.0","nudt9whlb0","NaN","<div style=""width:500px;"">
                                <p style=""font-size:50px; font-weight:bold;""
                                ></p>
                                <div style=""width:240px; margin: auto;"">
                                    <img src=""images/D17.png"" style= ""width:200px""alt=""img"">
                                </div>
                            </div>","-83","","0","images/D17.png","","","","[""Rectangular"",""Rounded""]"
"","","","","","html-slider-response","79","237262","0.0-73.0","nudt9whlb0","NaN","<div style=""width:500px;"">
                                <p style=""font-size:50px; font-weight:bold;""
                                ></p>
                                <div style=""width:240px; margin: auto;"">
                                    <img src=""images/D96.png"" style= ""width:200px""alt=""img"">
                                </div>
                            </div>","-200","","0","images/D96.png","","","","[""Rectangular"",""Rounded""]"
"","","","","","html-slider-response","80","239532","0.0-74.0","nudt9whlb0","NaN","<div style=""width:500px;"">
                                <p style=""font-size:50px; font-weight:bold;""
                                ></p>
                                <div style=""width:240px; margin: auto;"">
                                    <img src=""images/D106.png"" style= ""width:200px""alt=""img"">
                                </div>
                            </div>","86","","0","images/D106.png","","","","[""Rectangular"",""Rounded""]"
"","","","","","html-slider-response","81","241333","0.0-75.0","nudt9whlb0","NaN","<div style=""width:500px;"">
                                <p style=""font-size:50px; font-weight:bold;""
                                ></p>
                                <div style=""width:240px; margin: auto;"">
                                    <img src=""images/D76.png"" style= ""width:200px""alt=""img"">
                                </div>
                            </div>","112","","0","images/D76.png","","","","[""Rectangular"",""Rounded""]"
"","","","","","html-button-response","82","245926","0.0-76.0","nudt9whlb0","4090","You have completed the first block of trials out of six. Please click 'Continue' when you are ready proceed.","0","","","","","","",""
"","","","","","html-button-response","83","246679","0.0-77.0","nudt9whlb0","753","In the following trials, you will be asked to rate textures on the scale <b>Stripey</b> versus <b>Blobby</b>. Please click 'Continue' when you are ready proceed.","0","","","","","","",""
"","","","","","html-slider-response","84","248326","0.0-78.0","nudt9whlb0","NaN","<div style=""width:500px;"">
                                <p style=""font-size:50px; font-weight:bold;""
                                ></p>
                                <div style=""width:240px; margin: auto;"">
                                    <img src=""images/D26.png"" style= ""width:200px""alt=""img"">
                                </div>
                            </div>","-151","","0","images/D26.png","","","","[""Stripey"",""Blobby""]"
"","","","","","html-slider-response","85","250078","0.0-79.0","nudt9whlb0","NaN","<div style=""width:500px;"">
                                <p style=""font-size:50px; font-weight:bold;""
                                ></p>
                                <div style=""width:240px; margin: auto;"">
                                    <img src=""images/D29.png"" style= ""width:200px""alt=""img"">
                                </div>
                            </div>","81","","0","images/D29.png","","","","[""Stripey"",""Blobby""]"
"","","","","","html-slider-response","86","251948","0.0-80.0","nudt9whlb0","NaN","<div style=""width:500px;"">
                                <p style=""font-size:50px; font-weight:bold;""
                                ></p>
                                <div style=""width:240px; margin: auto;"">
                                    <img src=""images/D81.png"" style= ""width:200px""alt=""img"">
                                </div>
                            </div>","143","","0","images/D81.png","","","","[""Stripey"",""Blobby""]"
"","","","","","html-slider-response","87","254917","0.0-81.0","nudt9whlb0","NaN","<div style=""width:500px;"">
                                <p style=""font-size:50px; font-weight:bold;""
                                ></p>
                                <div style=""width:240px; margin: auto;"">
                                    <img src=""images/D34.png"" style= ""width:200px""alt=""img"">
                                </div>
                            </div>","-118","","0","images/D34.png","","","","[""Stripey"",""Blobby""]"
"","","","","","html-slider-response","88","256809","0.0-82.0","nudt9whlb0","NaN","<div style=""width:500px;"">
                                <p style=""font-size:50px; font-weight:bold;""
                                ></p>
                                <div style=""width:240px; margin: auto;"">
                                    <img src=""images/D76.png"" style= ""width:200px""alt=""img"">
                                </div>
                            </div>","151","","0","images/D76.png","","","","[""Stripey"",""Blobby""]"
"","","","","","html-slider-response","89","258533","0.0-83.0","nudt9whlb0","NaN","<div style=""width:500px;"">
                                <p style=""font-size:50px; font-weight:bold;""
                                ></p>
                                <div style=""width:240px; margin: auto;"">
                                    <img src=""images/D20.png"" style= ""width:200px""alt=""img"">
                                </div>
                            </div>","-116","","0","images/D20.png","","","","[""Stripey"",""Blobby""]"
"","","","","","html-slider-response","90","260260","0.0-84.0","nudt9whlb0","NaN","<div style=""width:500px;"">
                                <p style=""font-size:50px; font-weight:bold;""
                                ></p>
                                <div style=""width:240px; margin: auto;"">
                                    <img src=""images/D53.png"" style= ""width:200px""alt=""img"">
                                </div>
                            </div>","-185","","0","images/D53.png","","","","[""Stripey"",""Blobby""]"
"","","","","","html-slider-response","91","261993","0.0-85.0","nudt9whlb0","NaN","<div style=""width:500px;"">
                                <p style=""font-size:50px; font-weight:bold;""
                                ></p>
                                <div style=""width:240px; margin: auto;"">
                                    <img src=""images/D37.png"" style= ""width:200px""alt=""img"">
                                </div>
                            </div>","189","","0","images/D37.png","","","","[""Stripey"",""Blobby""]"
"","","","","","html-slider-response","92","263928","0.0-86.0","nudt9whlb0","NaN","<div style=""width:500px;"">
                                <p style=""font-size:50px; font-weight:bold;""
                                ></p>
                                <div style=""width:240px; margin: auto;"">
                                    <img src=""images/D6.png"" style= ""width:200px""alt=""img"">
                                </div>
                            </div>","-135","","0","images/D6.png","","","","[""Stripey"",""Blobby""]"
"","","","","","html-slider-response","93","267165","0.0-87.0","nudt9whlb0","NaN","<div style=""width:500px;"">
                                <p style=""font-size:50px; font-weight:bold;""
                                ></p>
                                <div style=""width:240px; margin: auto;"">
                                    <img src=""images/D80.png"" style= ""width:200px""alt=""img"">
                                </div>
                            </div>","-20","","0","images/D80.png","","","","[""Stripey"",""Blobby""]"
"","","","","","html-slider-response","94","268944","0.0-88.0","nudt9whlb0","NaN","<div style=""width:500px;"">
                                <p style=""font-size:50px; font-weight:bold;""
                                ></p>
                                <div style=""width:240px; margin: auto;"">
                                    <img src=""images/D68.png"" style= ""width:200px""alt=""img"">
                                </div>
                            </div>","-179","","0","images/D68.png","","","","[""Stripey"",""Blobby""]"
"","","","","","html-slider-response","95","271357","0.0-89.0","nudt9whlb0","NaN","<div style=""width:500px;"">
                                <p style=""font-size:50px; font-weight:bold;""
                                ></p>
                                <div style=""width:240px; margin: auto;"">
                                    <img src=""images/D65.png"" style= ""width:200px""alt=""img"">
                                </div>
                            </div>","-162","","0","images/D65.png","","","","[""Stripey"",""Blobby""]"
"","","","","","html-slider-response","96","272985","0.0-90.0","nudt9whlb0","NaN","<div style=""width:500px;"">
                                <p style=""font-size:50px; font-weight:bold;""
                                ></p>
                                <div style=""width:240px; margin: auto;"">
                                    <img src=""images/D57.png"" style= ""width:200px""alt=""img"">
                                </div>
                            </div>","161","","0","images/D57.png","","","","[""Stripey"",""Blobby""]"
"","","","","","html-slider-response","97","275149","0.0-91.0","nudt9whlb0","NaN","<div style=""width:500px;"">
                                <p style=""font-size:50px; font-weight:bold;""
                                ></p>
                                <div style=""width:240px; margin: auto;"">
                                    <img src=""images/D11.png"" style= ""width:200px""alt=""img"">
                                </div>
                            </div>","-141","","0","images/D11.png","","","","[""Stripey"",""Blobby""]"
"","","","","","html-slider-response","98","277401","0.0-92.0","nudt9whlb0","NaN","<div style=""width:500px;"">
                                <p style=""font-size:50px; font-weight:bold;""
                                ></p>
                                <div style=""width:240px; margin: auto;"">
                                    <img src=""images/D84.png"" style= ""width:200px""alt=""img"">
                                </div>
                            </div>","195","","0","images/D84.png","","","","[""Stripey"",""Blobby""]"
"","","","","","html-slider-response","99","279184","0.0-93.0","nudt9whlb0","NaN","<div style=""width:500px;"">
                                <p style=""font-size:50px; font-weight:bold;""
                                ></p>
                                <div style=""width:240px; margin: auto;"">
                                    <img src=""images/D105.png"" style= ""width:200px""alt=""img"">
                                </div>
                            </div>","-161","","0","images/D105.png","","","","[""Stripey"",""Blobby""]"
"","","","","","html-slider-response","100","281119","0.0-94.0","nudt9whlb0","NaN","<div style=""width:500px;"">
                                <p style=""font-size:50px; font-weight:bold;""
                                ></p>
                                <div style=""width:240px; margin: auto;"">
                                    <img src=""images/D66.png"" style= ""width:200px""alt=""img"">
                                </div>
                            </div>","188","","0","images/D66.png","","","","[""Stripey"",""Blobby""]"
"","","","","","html-slider-response","101","283451","0.0-95.0","nudt9whlb0","NaN","<div style=""width:500px;"">
                                <p style=""font-size:50px; font-weight:bold;""
                                ></p>
                                <div style=""width:240px; margin: auto;"">
                                    <img src=""images/D87.png"" style= ""width:200px""alt=""img"">
                                </div>
                            </div>","120","","0","images/D87.png","","","","[""Stripey"",""Blobby""]"
"","","","","","html-slider-response","102","285217","0.0-96.0","nudt9whlb0","NaN","<div style=""width:500px;"">
                                <p style=""font-size:50px; font-weight:bold;""
                                ></p>
                                <div style=""width:240px; margin: auto;"">
                                    <img src=""images/D17.png"" style= ""width:200px""alt=""img"">
                                </div>
                            </div>","-138","","0","images/D17.png","","","","[""Stripey"",""Blobby""]"
"","","","","","html-slider-response","103","288000","0.0-97.0","nudt9whlb0","NaN","<div style=""width:500px;"">
                                <p style=""font-size:50px; font-weight:bold;""
                                ></p>
                                <div style=""width:240px; margin: auto;"">
                                    <img src=""images/D48.png"" style= ""width:200px""alt=""img"">
                                </div>
                            </div>","200","","0","images/D48.png","","","","[""Stripey"",""Blobby""]"
"","","","","","html-slider-response","104","290046","0.0-98.0","nudt9whlb0","NaN","<div style=""width:500px;"">
                                <p style=""font-size:50px; font-weight:bold;""
                                ></p>
                                <div style=""width:240px; margin: auto;"">
                                    <img src=""images/D83.png"" style= ""width:200px""alt=""img"">
                                </div>
                            </div>","-157","","0","images/D83.png","","","","[""Stripey"",""Blobby""]"
"","","","","","html-slider-response","105","291726","0.0-99.0","nudt9whlb0","NaN","<div style=""width:500px;"">
                                <p style=""font-size:50px; font-weight:bold;""
                                ></p>
                                <div style=""width:240px; margin: auto;"">
                                    <img src=""images/D94.png"" style= ""width:200px""alt=""img"">
                                </div>
                            </div>","-200","","0","images/D94.png","","","","[""Stripey"",""Blobby""]"
"","","","","","html-slider-response","106","293872","0.0-100.0","nudt9whlb0","NaN","<div style=""width:500px;"">
                                <p style=""font-size:50px; font-weight:bold;""
                                ></p>
                                <div style=""width:240px; margin: auto;"">
                                    <img src=""images/D46.png"" style= ""width:200px""alt=""img"">
                                </div>
                            </div>","-130","","0","images/D46.png","","","","[""Stripey"",""Blobby""]"
"","","","","","html-slider-response","107","295873","0.0-101.0","nudt9whlb0","NaN","<div style=""width:500px;"">
                                <p style=""font-size:50px; font-weight:bold;""
                                ></p>
                                <div style=""width:240px; margin: auto;"">
                                    <img src=""images/D56.png"" style= ""width:200px""alt=""img"">
                                </div>
                            </div>","-152","","0","images/D56.png","","","","[""Stripey"",""Blobby""]"
"","","","","","html-slider-response","108","298011","0.0-102.0","nudt9whlb0","NaN","<div style=""width:500px;"">
                                <p style=""font-size:50px; font-weight:bold;""
                                ></p>
                                <div style=""width:240px; margin: auto;"">
                                    <img src=""images/D16.png"" style= ""width:200px""alt=""img"">
                                </div>
                            </div>","-114","","0","images/D16.png","","","","[""Stripey"",""Blobby""]"
"","","","","","html-slider-response","109","299667","0.0-103.0","nudt9whlb0","NaN","<div style=""width:500px;"">
                                <p style=""font-size:50px; font-weight:bold;""
                                ></p>
                                <div style=""width:240px; margin: auto;"">
                                    <img src=""images/D106.png"" style= ""width:200px""alt=""img"">
                                </div>
                            </div>","-169","","0","images/D106.png","","","","[""Stripey"",""Blobby""]"
"","","","","","html-slider-response","110","301440","0.0-104.0","nudt9whlb0","NaN","<div style=""width:500px;"">
                                <p style=""font-size:50px; font-weight:bold;""
                                ></p>
                                <div style=""width:240px; margin: auto;"">
                                    <img src=""images/D95.png"" style= ""width:200px""alt=""img"">
                                </div>
                            </div>","-166","","0","images/D95.png","","","","[""Stripey"",""Blobby""]"
"","","","","","html-slider-response","111","303053","0.0-105.0","nudt9whlb0","NaN","<div style=""width:500px;"">
                                <p style=""font-size:50px; font-weight:bold;""
                                ></p>
                                <div style=""width:240px; margin: auto;"">
                                    <img src=""images/D9.png"" style= ""width:200px""alt=""img"">
                                </div>
                            </div>","200","","0","images/D9.png","","","","[""Stripey"",""Blobby""]"
"","","","","","html-slider-response","112","306280","0.0-106.0","nudt9whlb0","NaN","<div style=""width:500px;"">
                                <p style=""font-size:50px; font-weight:bold;""
                                ></p>
                                <div style=""width:240px; margin: auto;"">
                                    <img src=""images/D77.png"" style= ""width:200px""alt=""img"">
                                </div>
                            </div>","24","","0","images/D77.png","","","","[""Stripey"",""Blobby""]"
"","","","","","html-slider-response","113","307639","0.0-107.0","nudt9whlb0","NaN","<div style=""width:500px;"">
                                <p style=""font-size:50px; font-weight:bold;""
                                ></p>
                                <div style=""width:240px; margin: auto;"">
                                    <img src=""images/D1.png"" style= ""width:200px""alt=""img"">
                                </div>
                            </div>","-200","","0","images/D1.png","","","","[""Stripey"",""Blobby""]"
"","","","","","html-slider-response","114","309788","0.0-108.0","nudt9whlb0","NaN","<div style=""width:500px;"">
                                <p style=""font-size:50px; font-weight:bold;""
                                ></p>
                                <div style=""width:240px; margin: auto;"">
                                    <img src=""images/D35.png"" style= ""width:200px""alt=""img"">
                                </div>
                            </div>","147","","0","images/D35.png","","","","[""Stripey"",""Blobby""]"
"","","","","","html-slider-response","115","311611","0.0-109.0","nudt9whlb0","NaN","<div style=""width:500px;"">
                                <p style=""font-size:50px; font-weight:bold;""
                                ></p>
                                <div style=""width:240px; margin: auto;"">
                                    <img src=""images/D3.png"" style= ""width:200px""alt=""img"">
                                </div>
                            </div>","150","","0","images/D3.png","","","","[""Stripey"",""Blobby""]"
"","","","","","html-slider-response","116","314319","0.0-110.0","nudt9whlb0","NaN","<div style=""width:500px;"">
                                <p style=""font-size:50px; font-weight:bold;""
                                ></p>
                                <div style=""width:240px; margin: auto;"">
                                    <img src=""images/D104.png"" style= ""width:200px""alt=""img"">
                                </div>
                            </div>","-110","","0","images/D104.png","","","","[""Stripey"",""Blobby""]"
"","","","","","html-slider-response","117","316714","0.0-111.0","nudt9whlb0","NaN","<div style=""width:500px;"">
                                <p style=""font-size:50px; font-weight:bold;""
                                ></p>
                                <div style=""width:240px; margin: auto;"">
                                    <img src=""images/D101.png"" style= ""width:200px""alt=""img"">
                                </div>
                            </div>","-101","","0","images/D101.png","","","","[""Stripey"",""Blobby""]"
"","","","","","html-slider-response","118","321150","0.0-112.0","nudt9whlb0","NaN","<div style=""width:500px;"">
                                <p style=""font-size:50px; font-weight:bold;""
                                ></p>
                                <div style=""width:240px; margin: auto;"">
                                    <img src=""images/D103.png"" style= ""width:200px""alt=""img"">
                                </div>
                            </div>","-12","","0","images/D103.png","","","","[""Stripey"",""Blobby""]"
"","","","","","html-slider-response","119","322999","0.0-113.0","nudt9whlb0","NaN","<div style=""width:500px;"">
                                <p style=""font-size:50px; font-weight:bold;""
                                ></p>
                                <div style=""width:240px; margin: auto;"">
                                    <img src=""images/D19.png"" style= ""width:200px""alt=""img"">
                                </div>
                            </div>","200","","0","images/D19.png","","","","[""Stripey"",""Blobby""]"
"","","","","","html-slider-response","120","324755","0.0-114.0","nudt9whlb0","NaN","<div style=""width:500px;"">
                                <p style=""font-size:50px; font-weight:bold;""
                                ></p>
                                <div style=""width:240px; margin: auto;"">
                                    <img src=""images/D24.png"" style= ""width:200px""alt=""img"">
                                </div>
                            </div>","134","","0","images/D24.png","","","","[""Stripey"",""Blobby""]"
"","","","","","html-slider-response","121","326789","0.0-115.0","nudt9whlb0","NaN","<div style=""width:500px;"">
                                <p style=""font-size:50px; font-weight:bold;""
                                ></p>
                                <div style=""width:240px; margin: auto;"">
                                    <img src=""images/D52.png"" style= ""width:200px""alt=""img"">
                                </div>
                            </div>","-39","","0","images/D52.png","","","","[""Stripey"",""Blobby""]"
"","","","","","html-slider-response","122","329648","0.0-116.0","nudt9whlb0","NaN","<div style=""width:500px;"">
                                <p style=""font-size:50px; font-weight:bold;""
                                ></p>
                                <div style=""width:240px; margin: auto;"">
                                    <img src=""images/D21.png"" style= ""width:200px""alt=""img"">
                                </div>
                            </div>","-126","","0","images/D21.png","","","","[""Stripey"",""Blobby""]"
"","","","","","html-slider-response","123","332496","0.0-117.0","nudt9whlb0","NaN","<div style=""width:500px;"">
                                <p style=""font-size:50px; font-weight:bold;""
                                ></p>
                                <div style=""width:240px; margin: auto;"">
                                    <img src=""images/D18.png"" style= ""width:200px""alt=""img"">
                                </div>
                            </div>","131","","0","images/D18.png","","","","[""Stripey"",""Blobby""]"
"","","","","","html-slider-response","124","359586","0.0-118.0","nudt9whlb0","NaN","<div style=""width:500px;"">
                                <p style=""font-size:50px; font-weight:bold;""
                                ></p>
                                <div style=""width:240px; margin: auto;"">
                                    <img src=""images/D78.png"" style= ""width:200px""alt=""img"">
                                </div>
                            </div>","34","","0","images/D78.png","","","","[""Stripey"",""Blobby""]"
"","","","","","html-slider-response","125","362106","0.0-119.0","nudt9whlb0","NaN","<div style=""width:500px;"">
                                <p style=""font-size:50px; font-weight:bold;""
                                ></p>
                                <div style=""width:240px; margin: auto;"">
                                    <img src=""images/D82.png"" style= ""width:200px""alt=""img"">
                                </div>
                            </div>","-105","","0","images/D82.png","","","","[""Stripey"",""Blobby""]"
"","","","","","html-slider-response","126","363703","0.0-120.0","nudt9whlb0","NaN","<div style=""width:500px;"">
                                <p style=""font-size:50px; font-weight:bold;""
                                ></p>
                                <div style=""width:240px; margin: auto;"">
                                    <img src=""images/D96.png"" style= ""width:200px""alt=""img"">
                                </div>
                            </div>","-200","","0","images/D96.png","","","","[""Stripey"",""Blobby""]"
"","","","","","html-slider-response","127","365606","0.0-121.0","nudt9whlb0","NaN","<div style=""width:500px;"">
                                <p style=""font-size:50px; font-weight:bold;""
                                ></p>
                                <div style=""width:240px; margin: auto;"">
                                    <img src=""images/D49.png"" style= ""width:200px""alt=""img"">
                                </div>
                            </div>","-200","","0","images/D49.png","","","","[""Stripey"",""Blobby""]"
"","","","","","html-slider-response","128","367296","0.0-122.0","nudt9whlb0","NaN","<div style=""width:500px;"">
                                <p style=""font-size:50px; font-weight:bold;""
                                ></p>
                                <div style=""width:240px; margin: auto;"">
                                    <img src=""images/D4.png"" style= ""width:200px""alt=""img"">
                                </div>
                            </div>","200","","0","images/D4.png","","","","[""Stripey"",""Blobby""]"
"","","","","","html-slider-response","129","368762","0.0-123.0","nudt9whlb0","NaN","<div style=""width:500px;"">
                                <p style=""font-size:50px; font-weight:bold;""
                                ></p>
                                <div style=""width:240px; margin: auto;"">
                                    <img src=""images/D51.png"" style= ""width:200px""alt=""img"">
                                </div>
                            </div>","-200","","0","images/D51.png","","","","[""Stripey"",""Blobby""]"
"","","","","","html-slider-response","130","370401","0.0-124.0","nudt9whlb0","NaN","<div style=""width:500px;"">
                                <p style=""font-size:50px; font-weight:bold;""
                                ></p>
                                <div style=""width:240px; margin: auto;"">
                                    <img src=""images/D8.png"" style= ""width:200px""alt=""img"">
                                </div>
                            </div>","177","","0","images/D8.png","","","","[""Stripey"",""Blobby""]"
"","","","","","html-slider-response","131","372165","0.0-125.0","nudt9whlb0","NaN","<div style=""width:500px;"">
                                <p style=""font-size:50px; font-weight:bold;""
                                ></p>
                                <div style=""width:240px; margin: auto;"">
                                    <img src=""images/D55.png"" style= ""width:200px""alt=""img"">
                                </div>
                            </div>","-166","","0","images/D55.png","","","","[""Stripey"",""Blobby""]"
"","","","","","html-slider-response","132","374143","0.0-126.0","nudt9whlb0","NaN","<div style=""width:500px;"">
                                <p style=""font-size:50px; font-weight:bold;""
                                ></p>
                                <div style=""width:240px; margin: auto;"">
                                    <img src=""images/D79.png"" style= ""width:200px""alt=""img"">
                                </div>
                            </div>","-196","","0","images/D79.png","","","","[""Stripey"",""Blobby""]"
"","","","","","html-slider-response","133","375689","0.0-127.0","nudt9whlb0","NaN","<div style=""width:500px;"">
                                <p style=""font-size:50px; font-weight:bold;""
                                ></p>
                                <div style=""width:240px; margin: auto;"">
                                    <img src=""images/D85.png"" style= ""width:200px""alt=""img"">
                                </div>
                            </div>","-200","","0","images/D85.png","","","","[""Stripey"",""Blobby""]"
"","","","","","html-slider-response","134","377557","0.0-128.0","nudt9whlb0","NaN","<div style=""width:500px;"">
                                <p style=""font-size:50px; font-weight:bold;""
                                ></p>
                                <div style=""width:240px; margin: auto;"">
                                    <img src=""images/D102.png"" style= ""width:200px""alt=""img"">
                                </div>
                            </div>","-75","","0","images/D102.png","","","","[""Stripey"",""Blobby""]"
"","","","","","html-slider-response","135","378911","0.0-129.0","nudt9whlb0","NaN","<div style=""width:500px;"">
                                <p style=""font-size:50px; font-weight:bold;""
                                ></p>
                                <div style=""width:240px; margin: auto;"">
                                    <img src=""images/D25.png"" style= ""width:200px""alt=""img"">
                                </div>
                            </div>","-200","","0","images/D25.png","","","","[""Stripey"",""Blobby""]"
"","","","","","html-slider-response","136","380402","0.0-130.0","nudt9whlb0","NaN","<div style=""width:500px;"">
                                <p style=""font-size:50px; font-weight:bold;""
                                ></p>
                                <div style=""width:240px; margin: auto;"">
                                    <img src=""images/D74.png"" style= ""width:200px""alt=""img"">
                                </div>
                            </div>","200","","0","images/D74.png","","","","[""Stripey"",""Blobby""]"
"","","","","","html-slider-response","137","382061","0.0-131.0","nudt9whlb0","NaN","<div style=""width:500px;"">
                                <p style=""font-size:50px; font-weight:bold;""
                                ></p>
                                <div style=""width:240px; margin: auto;"">
                                    <img src=""images/D75.png"" style= ""width:200px""alt=""img"">
                                </div>
                            </div>","200","","0","images/D75.png","","","","[""Stripey"",""Blobby""]"
"","","","","","html-slider-response","138","383832","0.0-132.0","nudt9whlb0","NaN","<div style=""width:500px;"">
                                <p style=""font-size:50px; font-weight:bold;""
                                ></p>
                                <div style=""width:240px; margin: auto;"">
                                    <img src=""images/D22.png"" style= ""width:200px""alt=""img"">
                                </div>
                            </div>","176","","0","images/D22.png","","","","[""Stripey"",""Blobby""]"
"","","","","","html-slider-response","139","385575","0.0-133.0","nudt9whlb0","NaN","<div style=""width:500px;"">
                                <p style=""font-size:50px; font-weight:bold;""
                                ></p>
                                <div style=""width:240px; margin: auto;"">
                                    <img src=""images/D64.png"" style= ""width:200px""alt=""img"">
                                </div>
                            </div>","-136","","0","images/D64.png","","","","[""Stripey"",""Blobby""]"
"","","","","","html-slider-response","140","387070","0.0-134.0","nudt9whlb0","NaN","<div style=""width:500px;"">
                                <p style=""font-size:50px; font-weight:bold;""
                                ></p>
                                <div style=""width:240px; margin: auto;"">
                                    <img src=""images/D111.png"" style= ""width:200px""alt=""img"">
                                </div>
                            </div>","146","","0","images/D111.png","","","","[""Stripey"",""Blobby""]"
"","","","","","html-slider-response","141","388640","0.0-135.0","nudt9whlb0","NaN","<div style=""width:500px;"">
                                <p style=""font-size:50px; font-weight:bold;""
                                ></p>
                                <div style=""width:240px; margin: auto;"">
                                    <img src=""images/D47.png"" style= ""width:200px""alt=""img"">
                                </div>
                            </div>","-165","","0","images/D47.png","","","","[""Stripey"",""Blobby""]"
"","","","","","html-slider-response","142","390225","0.0-136.0","nudt9whlb0","NaN","<div style=""width:500px;"">
                                <p style=""font-size:50px; font-weight:bold;""
                                ></p>
                                <div style=""width:240px; margin: auto;"">
                                    <img src=""images/D32.png"" style= ""width:200px""alt=""img"">
                                </div>
                            </div>","177","","0","images/D32.png","","","","[""Stripey"",""Blobby""]"
"","","","","","html-slider-response","143","392212","0.0-137.0","nudt9whlb0","NaN","<div style=""width:500px;"">
                                <p style=""font-size:50px; font-weight:bold;""
                                ></p>
                                <div style=""width:240px; margin: auto;"">
                                    <img src=""images/D36.png"" style= ""width:200px""alt=""img"">
                                </div>
                            </div>","78","","0","images/D36.png","","","","[""Stripey"",""Blobby""]"
"","","","","","html-slider-response","144","393819","0.0-138.0","nudt9whlb0","NaN","<div style=""width:500px;"">
                                <p style=""font-size:50px; font-weight:bold;""
                                ></p>
                                <div style=""width:240px; margin: auto;"">
                                    <img src=""images/D92.png"" style= ""width:200px""alt=""img"">
                                </div>
                            </div>","115","","0","images/D92.png","","","","[""Stripey"",""Blobby""]"
"","","","","","html-slider-response","145","395860","0.0-139.0","nudt9whlb0","NaN","<div style=""width:500px;"">
                                <p style=""font-size:50px; font-weight:bold;""
                                ></p>
                                <div style=""width:240px; margin: auto;"">
                                    <img src=""images/D14.png"" style= ""width:200px""alt=""img"">
                                </div>
                            </div>","-58","","0","images/D14.png","","","","[""Stripey"",""Blobby""]"
"","","","","","html-button-response","146","411751","0.0-140.0","nudt9whlb0","15389","You have completed the second block of trials out of six. Please click 'Continue' when you are ready proceed.","0","","","","","","",""
"","","","","","html-button-response","147","414679","0.0-141.0","nudt9whlb0","2928","In the following trials, you will be asked to rate textures on the scale <b>Soft</b> versus <b>Hard</b>. Please click 'Continue' when you are ready proceed.","0","","","","","","",""
"","","","","","html-slider-response","148","418286","0.0-142.0","nudt9whlb0","NaN","<div style=""width:500px;"">
                                <p style=""font-size:50px; font-weight:bold;""
                                ></p>
                                <div style=""width:240px; margin: auto;"">
                                    <img src=""images/D77.png"" style= ""width:200px""alt=""img"">
                                </div>
                            </div>","28","","0","images/D77.png","","","","[""Hard"",""Soft""]"
"","","","","","html-slider-response","149","419785","0.0-143.0","nudt9whlb0","NaN","<div style=""width:500px;"">
                                <p style=""font-size:50px; font-weight:bold;""
                                ></p>
                                <div style=""width:240px; margin: auto;"">
                                    <img src=""images/D1.png"" style= ""width:200px""alt=""img"">
                                </div>
                            </div>","-195","","0","images/D1.png","","","","[""Hard"",""Soft""]"
"","","","","","html-slider-response","150","422797","0.0-144.0","nudt9whlb0","NaN","<div style=""width:500px;"">
                                <p style=""font-size:50px; font-weight:bold;""
                                ></p>
                                <div style=""width:240px; margin: auto;"">
                                    <img src=""images/D66.png"" style= ""width:200px""alt=""img"">
                                </div>
                            </div>","56","","0","images/D66.png","","","","[""Hard"",""Soft""]"
"","","","","","html-slider-response","151","424161","0.0-145.0","nudt9whlb0","NaN","<div style=""width:500px;"">
                                <p style=""font-size:50px; font-weight:bold;""
                                ></p>
                                <div style=""width:240px; margin: auto;"">
                                    <img src=""images/D26.png"" style= ""width:200px""alt=""img"">
                                </div>
                            </div>","-200","","0","images/D26.png","","","","[""Hard"",""Soft""]"
"","","","","","html-slider-response","152","426403","0.0-146.0","nudt9whlb0","NaN","<div style=""width:500px;"">
                                <p style=""font-size:50px; font-weight:bold;""
                                ></p>
                                <div style=""width:240px; margin: auto;"">
                                    <img src=""images/D104.png"" style= ""width:200px""alt=""img"">
                                </div>
                            </div>","38","","0","images/D104.png","","","","[""Hard"",""Soft""]"
"","","","","","html-slider-response","153","428243","0.0-147.0","nudt9whlb0","NaN","<div style=""width:500px;"">
                                <p style=""font-size:50px; font-weight:bold;""
                                ></p>
                                <div style=""width:240px; margin: auto;"">
                                    <img src=""images/D36.png"" style= ""width:200px""alt=""img"">
                                </div>
                            </div>","62","","0","images/D36.png","","","","[""Hard"",""Soft""]"
"","","","","","html-slider-response","154","429617","0.0-148.0","nudt9whlb0","NaN","<div style=""width:500px;"">
                                <p style=""font-size:50px; font-weight:bold;""
                                ></p>
                                <div style=""width:240px; margin: auto;"">
                                    <img src=""images/D94.png"" style= ""width:200px""alt=""img"">
                                </div>
                            </div>","-200","","0","images/D94.png","","","","[""Hard"",""Soft""]"
"","","","","","html-slider-response","155","431564","0.0-149.0","nudt9whlb0","NaN","<div style=""width:500px;"">
                                <p style=""font-size:50px; font-weight:bold;""
                                ></p>
                                <div style=""width:240px; margin: auto;"">
                                    <img src=""images/D74.png"" style= ""width:200px""alt=""img"">
                                </div>
                            </div>","-91","","0","images/D74.png","","","","[""Hard"",""Soft""]"
"","","","","","html-slider-response","156","434553","0.0-150.0","nudt9whlb0","NaN","<div style=""width:500px;"">
                                <p style=""font-size:50px; font-weight:bold;""
                                ></p>
                                <div style=""width:240px; margin: auto;"">
                                    <img src=""images/D11.png"" style= ""width:200px""alt=""img"">
                                </div>
                            </div>","-29","","0","images/D11.png","","","","[""Hard"",""Soft""]"
"","","","","","html-slider-response","157","436660","0.0-151.0","nudt9whlb0","NaN","<div style=""width:500px;"">
                                <p style=""font-size:50px; font-weight:bold;""
                                ></p>
                                <div style=""width:240px; margin: auto;"">
                                    <img src=""images/D65.png"" style= ""width:200px""alt=""img"">
                                </div>
                            </div>","72","","0","images/D65.png","","","","[""Hard"",""Soft""]"
"","","","","","html-slider-response","158","438316","0.0-152.0","nudt9whlb0","NaN","<div style=""width:500px;"">
                                <p style=""font-size:50px; font-weight:bold;""
                                ></p>
                                <div style=""width:240px; margin: auto;"">
                                    <img src=""images/D84.png"" style= ""width:200px""alt=""img"">
                                </div>
                            </div>","79","","0","images/D84.png","","","","[""Hard"",""Soft""]"
"","","","","","html-slider-response","159","440300","0.0-153.0","nudt9whlb0","NaN","<div style=""width:500px;"">
                                <p style=""font-size:50px; font-weight:bold;""
                                ></p>
                                <div style=""width:240px; margin: auto;"">
                                    <img src=""images/D105.png"" style= ""width:200px""alt=""img"">
                                </div>
                            </div>","91","","0","images/D105.png","","","","[""Hard"",""Soft""]"
"","","","","","html-slider-response","160","442044","0.0-154.0","nudt9whlb0","NaN","<div style=""width:500px;"">
                                <p style=""font-size:50px; font-weight:bold;""
                                ></p>
                                <div style=""width:240px; margin: auto;"">
                                    <img src=""images/D75.png"" style= ""width:200px""alt=""img"">
                                </div>
                            </div>","128","","0","images/D75.png","","","","[""Hard"",""Soft""]"
"","","","","","html-slider-response","161","443942","0.0-155.0","nudt9whlb0","NaN","<div style=""width:500px;"">
                                <p style=""font-size:50px; font-weight:bold;""
                                ></p>
                                <div style=""width:240px; margin: auto;"">
                                    <img src=""images/D3.png"" style= ""width:200px""alt=""img"">
                                </div>
                            </div>","86","","0","images/D3.png","","","","[""Hard"",""Soft""]"
"","","","","","html-slider-response","162","445682","0.0-156.0","nudt9whlb0","NaN","<div style=""width:500px;"">
                                <p style=""font-size:50px; font-weight:bold;""
                                ></p>
                                <div style=""width:240px; margin: auto;"">
                                    <img src=""images/D51.png"" style= ""width:200px""alt=""img"">
                                </div>
                            </div>","114","","0","images/D51.png","","","","[""Hard"",""Soft""]"
"","","","","","html-slider-response","163","447351","0.0-157.0","nudt9whlb0","NaN","<div style=""width:500px;"">
                                <p style=""font-size:50px; font-weight:bold;""
                                ></p>
                                <div style=""width:240px; margin: auto;"">
                                    <img src=""images/D53.png"" style= ""width:200px""alt=""img"">
                                </div>
                            </div>","128","","0","images/D53.png","","","","[""Hard"",""Soft""]"
"","","","","","html-slider-response","164","449054","0.0-158.0","nudt9whlb0","NaN","<div style=""width:500px;"">
                                <p style=""font-size:50px; font-weight:bold;""
                                ></p>
                                <div style=""width:240px; margin: auto;"">
                                    <img src=""images/D80.png"" style= ""width:200px""alt=""img"">
                                </div>
                            </div>","-112","","0","images/D80.png","","","","[""Hard"",""Soft""]"
"","","","","","html-slider-response","165","450819","0.0-159.0","nudt9whlb0","NaN","<div style=""width:500px;"">
                                <p style=""font-size:50px; font-weight:bold;""
                                ></p>
                                <div style=""width:240px; margin: auto;"">
                                    <img src=""images/D102.png"" style= ""width:200px""alt=""img"">
                                </div>
                            </div>","-85","","0","images/D102.png","","","","[""Hard"",""Soft""]"
"","","","","","html-slider-response","166","452879","0.0-160.0","nudt9whlb0","NaN","<div style=""width:500px;"">
                                <p style=""font-size:50px; font-weight:bold;""
                                ></p>
                                <div style=""width:240px; margin: auto;"">
                                    <img src=""images/D8.png"" style= ""width:200px""alt=""img"">
                                </div>
                            </div>","61","","0","images/D8.png","","","","[""Hard"",""Soft""]"
"","","","","","html-slider-response","167","454540","0.0-161.0","nudt9whlb0","NaN","<div style=""width:500px;"">
                                <p style=""font-size:50px; font-weight:bold;""
                                ></p>
                                <div style=""width:240px; margin: auto;"">
                                    <img src=""images/D24.png"" style= ""width:200px""alt=""img"">
                                </div>
                            </div>","-103","","0","images/D24.png","","","","[""Hard"",""Soft""]"
"","","","","","html-slider-response","168","456303","0.0-162.0","nudt9whlb0","NaN","<div style=""width:500px;"">
                                <p style=""font-size:50px; font-weight:bold;""
                                ></p>
                                <div style=""width:240px; margin: auto;"">
                                    <img src=""images/D29.png"" style= ""width:200px""alt=""img"">
                                </div>
                            </div>","-97","","0","images/D29.png","","","","[""Hard"",""Soft""]"
"","","","","","html-slider-response","169","458190","0.0-163.0","nudt9whlb0","NaN","<div style=""width:500px;"">
                                <p style=""font-size:50px; font-weight:bold;""
                                ></p>
                                <div style=""width:240px; margin: auto;"">
                                    <img src=""images/D35.png"" style= ""width:200px""alt=""img"">
                                </div>
                            </div>","-92","","0","images/D35.png","","","","[""Hard"",""Soft""]"
"","","","","","html-slider-response","170","459916","0.0-164.0","nudt9whlb0","NaN","<div style=""width:500px;"">
                                <p style=""font-size:50px; font-weight:bold;""
                                ></p>
                                <div style=""width:240px; margin: auto;"">
                                    <img src=""images/D55.png"" style= ""width:200px""alt=""img"">
                                </div>
                            </div>","110","","0","images/D55.png","","","","[""Hard"",""Soft""]"
"","","","","","html-slider-response","171","461777","0.0-165.0","nudt9whlb0","NaN","<div style=""width:500px;"">
                                <p style=""font-size:50px; font-weight:bold;""
                                ></p>
                                <div style=""width:240px; margin: auto;"">
                                    <img src=""images/D79.png"" style= ""width:200px""alt=""img"">
                                </div>
                            </div>","-96","","0","images/D79.png","","","","[""Hard"",""Soft""]"
"","","","","","html-slider-response","172","463383","0.0-166.0","nudt9whlb0","NaN","<div style=""width:500px;"">
                                <p style=""font-size:50px; font-weight:bold;""
                                ></p>
                                <div style=""width:240px; margin: auto;"">
                                    <img src=""images/D37.png"" style= ""width:200px""alt=""img"">
                                </div>
                            </div>","93","","0","images/D37.png","","","","[""Hard"",""Soft""]"
"","","","","","html-slider-response","173","464998","0.0-167.0","nudt9whlb0","NaN","<div style=""width:500px;"">
                                <p style=""font-size:50px; font-weight:bold;""
                                ></p>
                                <div style=""width:240px; margin: auto;"">
                                    <img src=""images/D82.png"" style= ""width:200px""alt=""img"">
                                </div>
                            </div>","106","","0","images/D82.png","","","","[""Hard"",""Soft""]"
"","","","","","html-slider-response","174","466901","0.0-168.0","nudt9whlb0","NaN","<div style=""width:500px;"">
                                <p style=""font-size:50px; font-weight:bold;""
                                ></p>
                                <div style=""width:240px; margin: auto;"">
                                    <img src=""images/D47.png"" style= ""width:200px""alt=""img"">
                                </div>
                            </div>","-106","","0","images/D47.png","","","","[""Hard"",""Soft""]"
"","","","","","html-slider-response","175","469030","0.0-169.0","nudt9whlb0","NaN","<div style=""width:500px;"">
                                <p style=""font-size:50px; font-weight:bold;""
                                ></p>
                                <div style=""width:240px; margin: auto;"">
                                    <img src=""images/D64.png"" style= ""width:200px""alt=""img"">
                                </div>
                            </div>","-135","","0","images/D64.png","","","","[""Hard"",""Soft""]"
"","","","","","html-slider-response","176","471197","0.0-170.0","nudt9whlb0","NaN","<div style=""width:500px;"">
                                <p style=""font-size:50px; font-weight:bold;""
                                ></p>
                                <div style=""width:240px; margin: auto;"">
                                    <img src=""images/D9.png"" style= ""width:200px""alt=""img"">
                                </div>
                            </div>","80","","0","images/D9.png","","","","[""Hard"",""Soft""]"
"","","","","","html-slider-response","177","472999","0.0-171.0","nudt9whlb0","NaN","<div style=""width:500px;"">
                                <p style=""font-size:50px; font-weight:bold;""
                                ></p>
                                <div style=""width:240px; margin: auto;"">
                                    <img src=""images/D48.png"" style= ""width:200px""alt=""img"">
                                </div>
                            </div>","128","","0","images/D48.png","","","","[""Hard"",""Soft""]"
"","","","","","html-slider-response","178","474539","0.0-172.0","nudt9whlb0","NaN","<div style=""width:500px;"">
                                <p style=""font-size:50px; font-weight:bold;""
                                ></p>
                                <div style=""width:240px; margin: auto;"">
                                    <img src=""images/D95.png"" style= ""width:200px""alt=""img"">
                                </div>
                            </div>","-200","","0","images/D95.png","","","","[""Hard"",""Soft""]"
"","","","","","html-slider-response","179","476839","0.0-173.0","nudt9whlb0","NaN","<div style=""width:500px;"">
                                <p style=""font-size:50px; font-weight:bold;""
                                ></p>
                                <div style=""width:240px; margin: auto;"">
                                    <img src=""images/D14.png"" style= ""width:200px""alt=""img"">
                                </div>
                            </div>","-78","","0","images/D14.png","","","","[""Hard"",""Soft""]"
"","","","","","html-slider-response","180","479807","0.0-174.0","nudt9whlb0","NaN","<div style=""width:500px;"">
                                <p style=""font-size:50px; font-weight:bold;""
                                ></p>
                                <div style=""width:240px; margin: auto;"">
                                    <img src=""images/D83.png"" style= ""width:200px""alt=""img"">
                                </div>
                            </div>","-122","","0","images/D83.png","","","","[""Hard"",""Soft""]"
"","","","","","html-slider-response","181","482083","0.0-175.0","nudt9whlb0","NaN","<div style=""width:500px;"">
                                <p style=""font-size:50px; font-weight:bold;""
                                ></p>
                                <div style=""width:240px; margin: auto;"">
                                    <img src=""images/D16.png"" style= ""width:200px""alt=""img"">
                                </div>
                            </div>","154","","0","images/D16.png","","","","[""Hard"",""Soft""]"
"","","","","","html-slider-response","182","483886","0.0-176.0","nudt9whlb0","NaN","<div style=""width:500px;"">
                                <p style=""font-size:50px; font-weight:bold;""
                                ></p>
                                <div style=""width:240px; margin: auto;"">
                                    <img src=""images/D34.png"" style= ""width:200px""alt=""img"">
                                </div>
                            </div>","-190","","0","images/D34.png","","","","[""Hard"",""Soft""]"
"","","","","","html-slider-response","183","486472","0.0-177.0","nudt9whlb0","NaN","<div style=""width:500px;"">
                                <p style=""font-size:50px; font-weight:bold;""
                                ></p>
                                <div style=""width:240px; margin: auto;"">
                                    <img src=""images/D32.png"" style= ""width:200px""alt=""img"">
                                </div>
                            </div>","148","","0","images/D32.png","","","","[""Hard"",""Soft""]"
"","","","","","html-slider-response","184","565262","0.0-178.0","nudt9whlb0","NaN","<div style=""width:500px;"">
                                <p style=""font-size:50px; font-weight:bold;""
                                ></p>
                                <div style=""width:240px; margin: auto;"">
                                    <img src=""images/D56.png"" style= ""width:200px""alt=""img"">
                                </div>
                            </div>","63","","0","images/D56.png","","","","[""Hard"",""Soft""]"
"","","","","","html-slider-response","185","566698","0.0-179.0","nudt9whlb0","NaN","<div style=""width:500px;"">
                                <p style=""font-size:50px; font-weight:bold;""
                                ></p>
                                <div style=""width:240px; margin: auto;"">
                                    <img src=""images/D25.png"" style= ""width:200px""alt=""img"">
                                </div>
                            </div>","-200","","0","images/D25.png","","","","[""Hard"",""Soft""]"
"","","","","","html-slider-response","186","568257","0.0-180.0","nudt9whlb0","NaN","<div style=""width:500px;"">
                                <p style=""font-size:50px; font-weight:bold;""
                                ></p>
                                <div style=""width:240px; margin: auto;"">
                                    <img src=""images/D6.png"" style= ""width:200px""alt=""img"">
                                </div>
                            </div>","75","","0","images/D6.png","","","","[""Hard"",""Soft""]"
"","","","","","html-slider-response","187","569718","0.0-181.0","nudt9whlb0","NaN","<div style=""width:500px;"">
                                <p style=""font-size:50px; font-weight:bold;""
                                ></p>
                                <div style=""width:240px; margin: auto;"">
