"success","timeout","failed_images","failed_audio","failed_video","trial_type","trial_index","time_elapsed","internal_node_id","subject_id","rt","stimulus","response","question_order","slider_start","image_path","practiceTrial","practiceTrialNum","correct","slider_labels"
"true","false","[]","[]","[]","preload","0","399","0.0-0.0","o1lq2wy33n","","","","","","","","","",""
"","","","","","html-button-response","1","6432","0.0-1.0","o1lq2wy33n","6031","<div style='text-align:center; font-size:20px; line-height:25px; width: 1200px;'>
                Welcome to our experiment! <br>
                <br>At the bottom of this screen, you will see a button that says 'Begin Experiment.
                <br>Please only click that button when you are ready to complete the 25 minute experiment in one sitting. <br>
                <br> Once you click that button, it will not be possible to restart the experiment. <br><br>","0","","","","","","",""
"true","","","","","fullscreen","2","32281422","0.0-2.0","o1lq2wy33n","12662112","","","","","","","","",""
"","","","","","survey-multi-select","3","32312214","0.0-3.0","o1lq2wy33n","30786","","{""Consent"":[""<strong>I consent</strong>""]}","[0]","","","","","",""
"","","","","","html-button-response","4","32317652","0.0-4.0","o1lq2wy33n","5436","Welcome! <p> This experiment involves two parts: demographic information, followed by the experimental task.<p> It will take about 25 minutes to complete both parts.","0","","","","","","",""
"","","","","","survey-text","5","32333499","0.0-5.0","o1lq2wy33n","15843","","{""Age"":""21"",""Gender"":""male"",""Race/ethnicity"":""southeast asian/hmong""}","","","","","","",""
"","","","","","html-slider-response","6","32596773","0.0-6.0","o1lq2wy33n","263270","
                <div style='text-align:center; height: auto; margin-left=-100px; margin-bottom: -20px; font-size:20px; line-height:5px; width: 1200px;'>
                    <br>During this experiment, you will see a series of textures, one at a time, like the ones below: 
                </div>
                    <br>
                    <br>
                    <img src=""anchoring_visual_textures.png"" alt=""img"" style=""max-width:1200px; margin-left: -10px;"">
                </div>
                <div style=""clear: both;""></div>
                </div>
                    <div style='text-align:center; margin-left=-100px; font-size:20px; line-height:20px; width: 1200px; margin-top: -50px;'>
                    
                    <br> For each texture, you will be asked to rate where you think it falls on each of the response scales with the following endpoints:
                    </div>
                            <div style=""text-align: center; width: 1400px; "">
                                <p style=""font-size:20px; line-height:5px; ""><b>Blobby</b> versus <b>Stripey</b></p>
                                <p style=""font-size:20px; line-height:5px; ""><b>Rounded</b> versus <b>Rectangular</b></p>
                                <p style=""font-size:20px;line-height:5px;""><b>Coarse</b> versus <b>Fine</b></p>
                                <p style=""font-size:20px;line-height:5px; ""><b>Rough</b> versus <b>Smooth</b></p>
                                <p style=""font-size:20px;line-height:5px; ""><b>Random</b> versus <b>Non-Random</b></p>
                                <p style=""font-size:20px;line-height:5px;""><b>Hard</b> versus <b>Soft</b></p>
                            </div>
                            <div style='text-align:center; font-size:20px; line-height:20px; width: 1400px;'>
                    
                    Each trial will include one texture and one response scale. You will be asked to make your rating by sliding the cursor along a slider response scale like the one below.
                    <br><br> Before beginning, please look at the textures and scales. For each scale, think about the texture you associate most with the left endpoint. When you see that texture for that response scale, please click near the left of the scale.
                    <br><br> Now, please think about the texture you associate most with the right endpoint of each scale. When you see that texture for that response scale, please click near the right of the scale. 
                    <br><br> If you think a texture is not strongly associated with either endpoint of the scale, please click near the midpoint of the scale. Please use the full range of the scale. 
                    <br><br> You will be asked to rate each texture for a given scale before moving on to the next scale.
                    <br><br> Please press the 'Continue' button for instructions on how to use the slider.                     <br><br>
                ","2","","0","visual_textures_anchoring.png","true","","",""
"","","","","","html-button-response","7","32605002","0.0-7.0","o1lq2wy33n","8228","<div style=""width:1200px; margin-top:-150px;""><p style=""text-align:center; font-size:24px;"">To move the slider, click and drag your cursor to the location of the scale where you would like to make your rating and then let go. <br><br> When you let go of the slider, your response will be recorded and the next trial will begin. <br><br><br>
                We are interested in your initial impressions of each texture and scale, so please go with your first intuition. <br><br>
                Before you begin the experiment, there will be four training trials for you to practice using the scale. <br><br><br><br></div>
                <div style=""width:1200px;""><p style=""text-align:center; font-size:20px;"">When you are ready to start the training trials, please click ""Continue"".</p></div>","0","","","","","","",""
"","","","","","html-slider-response","8","32607922","0.0-8.0-0.0","o1lq2wy33n","NaN","<div style=""width:500px;"">
                                <p style=""font-size:25px;"">Please move the slider all the way to the <br> right endpoint of the scale</p>

                                </div>
                            </div>","200","","0","","true","0","true",""
"","","","","","html-button-response","9","32609833","0.0-8.0-1.0","o1lq2wy33n","1407","<p align='center'><b>Good job!</b> Click on 'Continue' to proceed.</p>","0","","","","","","",""
"","","","","","html-slider-response","10","32611315","0.0-9.0-0.0","o1lq2wy33n","NaN","<div style=""width:500px;"">
                                <p style=""font-size:25px;"">Please move the slider all the way to the <br> left endpoint of the scale</p>

                                </div>
                            </div>","-200","","0","","true","1","true",""
"","","","","","html-button-response","11","32613256","0.0-9.0-1.0","o1lq2wy33n","1438","<p align='center'><b>Good job!</b> Click on 'Continue' to proceed.</p>","0","","","","","","",""
"","","","","","html-slider-response","12","32618770","0.0-10.0-0.0","o1lq2wy33n","NaN","<div style=""width:500px;"">
                                <p style=""font-size:25px;"">Please move the slider halfway between the center and right endpoint of the scale</p>

                                </div>
                            </div>","114","","0","","true","2","false",""
"","","","","","html-button-response","13","32621583","0.0-10.0-1.0","o1lq2wy33n","2309","<p align='center'><b>Not quite!</b> The slider was not placed near the instructed locattion. Click on 'Continue' to try again. </p>","0","","","","","","",""
"","","","","","html-slider-response","14","32632892","0.0-10.1-0.1","o1lq2wy33n","NaN","<div style=""width:500px;"">
                                <p style=""font-size:25px;"">Please move the slider halfway between the center and right endpoint of the scale</p>

                                </div>
                            </div>","51","","0","","true","2","false",""
"","","","","","html-button-response","15","32637466","0.0-10.1-1.1","o1lq2wy33n","4071","<p align='center'><b>Not quite!</b> The slider was not placed near the instructed locattion. Click on 'Continue' to try again. </p>","0","","","","","","",""
"","","","","","html-slider-response","16","32659582","0.0-10.2-0.2","o1lq2wy33n","NaN","<div style=""width:500px;"">
                                <p style=""font-size:25px;"">Please move the slider halfway between the center and right endpoint of the scale</p>

                                </div>
                            </div>","106","","0","","true","2","true",""
"","","","","","html-button-response","17","32661057","0.0-10.2-1.2","o1lq2wy33n","971","<p align='center'><b>Good job!</b> Click on 'Continue' to proceed.</p>","0","","","","","","",""
"","","","","","html-slider-response","18","32664857","0.0-11.0-0.0","o1lq2wy33n","NaN","<div style=""width:500px;"">
                                <p style=""font-size:25px;"">Please move the slider halfway between the center and left endpoint of the scale</p>

                                </div>
                            </div>","-94","","0","","true","3","true",""
"","","","","","html-button-response","19","32666047","0.0-11.0-1.0","o1lq2wy33n","687","<p align='center'><b>Good job!</b> Click on 'Continue' to proceed.</p>","0","","","","","","",""
"","","","","","html-button-response","20","32691742","0.0-12.0","o1lq2wy33n","25694","<div style=""width:800px; margin-top:-300px;""><p style=""text-align:center; font-size:22px; line-height:25px;""""> Great job! You've completed the practice trials.</div>
                     <div style=""width:800px; margin-top:-20px;""><p style=""text-align:center""><br><br> In the following trials, you will be asked to rate textures on each scale one-by-one. <br> You will be given opportunities to take breaks when you have completed each block of trials. There are six total blocks of trials. <br><br> Please click continue to begin the main task.<br><br><br> </div>","0","","","","","","",""
"","","","","","html-button-response","21","32695099","0.0-13.0","o1lq2wy33n","3355","In the following trials, you will be asked to rate textures on the scale <b>Blobby</b> versus <b>Stripey</b>. Please click 'Continue' when you are ready proceed.","0","","","","","","",""
"","","","","","html-slider-response","22","32754622","0.0-14.0","o1lq2wy33n","NaN","<div style=""width:500px;"">
                                <p style=""font-size:50px; font-weight:bold;""
                                ></p>
                                <div style=""width:240px; margin: auto;"">
                                    <img src=""images/D25.png"" style= ""width:200px""alt=""img"">
                                </div>
                            </div>","200","","0","images/D25.png","","","","[""Blobby"",""Stripey""]"
"","","","","","html-slider-response","23","32757621","0.0-15.0","o1lq2wy33n","NaN","<div style=""width:500px;"">
                                <p style=""font-size:50px; font-weight:bold;""
                                ></p>
                                <div style=""width:240px; margin: auto;"">
                                    <img src=""images/D105.png"" style= ""width:200px""alt=""img"">
                                </div>
                            </div>","200","","0","images/D105.png","","","","[""Blobby"",""Stripey""]"
"","","","","","html-slider-response","24","32759831","0.0-16.0","o1lq2wy33n","NaN","<div style=""width:500px;"">
                                <p style=""font-size:50px; font-weight:bold;""
                                ></p>
                                <div style=""width:240px; margin: auto;"">
                                    <img src=""images/D106.png"" style= ""width:200px""alt=""img"">
                                </div>
                            </div>","200","","0","images/D106.png","","","","[""Blobby"",""Stripey""]"
"","","","","","html-slider-response","25","32766356","0.0-17.0","o1lq2wy33n","NaN","<div style=""width:500px;"">
                                <p style=""font-size:50px; font-weight:bold;""
                                ></p>
                                <div style=""width:240px; margin: auto;"">
                                    <img src=""images/D21.png"" style= ""width:200px""alt=""img"">
                                </div>
                            </div>","141","","0","images/D21.png","","","","[""Blobby"",""Stripey""]"
"","","","","","html-slider-response","26","32769565","0.0-18.0","o1lq2wy33n","NaN","<div style=""width:500px;"">
                                <p style=""font-size:50px; font-weight:bold;""
                                ></p>
                                <div style=""width:240px; margin: auto;"">
                                    <img src=""images/D34.png"" style= ""width:200px""alt=""img"">
                                </div>
                            </div>","-200","","0","images/D34.png","","","","[""Blobby"",""Stripey""]"
"","","","","","html-slider-response","27","32777731","0.0-19.0","o1lq2wy33n","NaN","<div style=""width:500px;"">
                                <p style=""font-size:50px; font-weight:bold;""
                                ></p>
                                <div style=""width:240px; margin: auto;"">
                                    <img src=""images/D81.png"" style= ""width:200px""alt=""img"">
                                </div>
                            </div>","-11","","0","images/D81.png","","","","[""Blobby"",""Stripey""]"
"","","","","","html-slider-response","28","32779810","0.0-20.0","o1lq2wy33n","NaN","<div style=""width:500px;"">
                                <p style=""font-size:50px; font-weight:bold;""
                                ></p>
                                <div style=""width:240px; margin: auto;"">
                                    <img src=""images/D76.png"" style= ""width:200px""alt=""img"">
                                </div>
                            </div>","200","","0","images/D76.png","","","","[""Blobby"",""Stripey""]"
"","","","","","html-slider-response","29","32783122","0.0-21.0","o1lq2wy33n","NaN","<div style=""width:500px;"">
                                <p style=""font-size:50px; font-weight:bold;""
                                ></p>
                                <div style=""width:240px; margin: auto;"">
                                    <img src=""images/D55.png"" style= ""width:200px""alt=""img"">
                                </div>
                            </div>","200","","0","images/D55.png","","","","[""Blobby"",""Stripey""]"
"","","","","","html-slider-response","30","32788361","0.0-22.0","o1lq2wy33n","NaN","<div style=""width:500px;"">
                                <p style=""font-size:50px; font-weight:bold;""
                                ></p>
                                <div style=""width:240px; margin: auto;"">
                                    <img src=""images/D87.png"" style= ""width:200px""alt=""img"">
                                </div>
                            </div>","35","","0","images/D87.png","","","","[""Blobby"",""Stripey""]"
"","","","","","html-slider-response","31","32790401","0.0-23.0","o1lq2wy33n","NaN","<div style=""width:500px;"">
                                <p style=""font-size:50px; font-weight:bold;""
                                ></p>
                                <div style=""width:240px; margin: auto;"">
                                    <img src=""images/D74.png"" style= ""width:200px""alt=""img"">
                                </div>
                            </div>","-200","","0","images/D74.png","","","","[""Blobby"",""Stripey""]"
"","","","","","html-slider-response","32","32794693","0.0-24.0","o1lq2wy33n","NaN","<div style=""width:500px;"">
                                <p style=""font-size:50px; font-weight:bold;""
                                ></p>
                                <div style=""width:240px; margin: auto;"">
                                    <img src=""images/D14.png"" style= ""width:200px""alt=""img"">
                                </div>
                            </div>","4","","0","images/D14.png","","","","[""Blobby"",""Stripey""]"
"","","","","","html-slider-response","33","32798267","0.0-25.0","o1lq2wy33n","NaN","<div style=""width:500px;"">
                                <p style=""font-size:50px; font-weight:bold;""
                                ></p>
                                <div style=""width:240px; margin: auto;"">
                                    <img src=""images/D56.png"" style= ""width:200px""alt=""img"">
                                </div>
                            </div>","200","","0","images/D56.png","","","","[""Blobby"",""Stripey""]"
"","","","","","html-slider-response","34","32800805","0.0-26.0","o1lq2wy33n","NaN","<div style=""width:500px;"">
                                <p style=""font-size:50px; font-weight:bold;""
                                ></p>
                                <div style=""width:240px; margin: auto;"">
                                    <img src=""images/D57.png"" style= ""width:200px""alt=""img"">
                                </div>
                            </div>","-200","","0","images/D57.png","","","","[""Blobby"",""Stripey""]"
"","","","","","html-slider-response","35","32803003","0.0-27.0","o1lq2wy33n","NaN","<div style=""width:500px;"">
                                <p style=""font-size:50px; font-weight:bold;""
                                ></p>
                                <div style=""width:240px; margin: auto;"">
                                    <img src=""images/D6.png"" style= ""width:200px""alt=""img"">
                                </div>
                            </div>","-200","","0","images/D6.png","","","","[""Blobby"",""Stripey""]"
"","","","","","html-slider-response","36","32806339","0.0-28.0","o1lq2wy33n","NaN","<div style=""width:500px;"">
                                <p style=""font-size:50px; font-weight:bold;""
                                ></p>
                                <div style=""width:240px; margin: auto;"">
                                    <img src=""images/D19.png"" style= ""width:200px""alt=""img"">
                                </div>
                            </div>","-200","","0","images/D19.png","","","","[""Blobby"",""Stripey""]"
"","","","","","html-slider-response","37","32808537","0.0-29.0","o1lq2wy33n","NaN","<div style=""width:500px;"">
                                <p style=""font-size:50px; font-weight:bold;""
                                ></p>
                                <div style=""width:240px; margin: auto;"">
                                    <img src=""images/D29.png"" style= ""width:200px""alt=""img"">
                                </div>
                            </div>","-200","","0","images/D29.png","","","","[""Blobby"",""Stripey""]"
"","","","","","html-slider-response","38","32816362","0.0-30.0","o1lq2wy33n","NaN","<div style=""width:500px;"">
                                <p style=""font-size:50px; font-weight:bold;""
                                ></p>
                                <div style=""width:240px; margin: auto;"">
                                    <img src=""images/D53.png"" style= ""width:200px""alt=""img"">
                                </div>
                            </div>","-58","","0","images/D53.png","","","","[""Blobby"",""Stripey""]"
"","","","","","html-slider-response","39","32820805","0.0-31.0","o1lq2wy33n","NaN","<div style=""width:500px;"">
                                <p style=""font-size:50px; font-weight:bold;""
                                ></p>
                                <div style=""width:240px; margin: auto;"">
                                    <img src=""images/D9.png"" style= ""width:200px""alt=""img"">
                                </div>
                            </div>","-200","","0","images/D9.png","","","","[""Blobby"",""Stripey""]"
"","","","","","html-slider-response","40","32828853","0.0-32.0","o1lq2wy33n","NaN","<div style=""width:500px;"">
                                <p style=""font-size:50px; font-weight:bold;""
                                ></p>
                                <div style=""width:240px; margin: auto;"">
                                    <img src=""images/D104.png"" style= ""width:200px""alt=""img"">
                                </div>
                            </div>","-29","","0","images/D104.png","","","","[""Blobby"",""Stripey""]"
"","","","","","html-slider-response","41","32830916","0.0-33.0","o1lq2wy33n","NaN","<div style=""width:500px;"">
                                <p style=""font-size:50px; font-weight:bold;""
                                ></p>
                                <div style=""width:240px; margin: auto;"">
                                    <img src=""images/D51.png"" style= ""width:200px""alt=""img"">
                                </div>
                            </div>","200","","0","images/D51.png","","","","[""Blobby"",""Stripey""]"
"","","","","","html-slider-response","42","32832988","0.0-34.0","o1lq2wy33n","NaN","<div style=""width:500px;"">
                                <p style=""font-size:50px; font-weight:bold;""
                                ></p>
                                <div style=""width:240px; margin: auto;"">
                                    <img src=""images/D75.png"" style= ""width:200px""alt=""img"">
                                </div>
                            </div>","-200","","0","images/D75.png","","","","[""Blobby"",""Stripey""]"
"","","","","","html-slider-response","43","32836149","0.0-35.0","o1lq2wy33n","NaN","<div style=""width:500px;"">
                                <p style=""font-size:50px; font-weight:bold;""
                                ></p>
                                <div style=""width:240px; margin: auto;"">
                                    <img src=""images/D68.png"" style= ""width:200px""alt=""img"">
                                </div>
                            </div>","200","","0","images/D68.png","","","","[""Blobby"",""Stripey""]"
"","","","","","html-slider-response","44","32838578","0.0-36.0","o1lq2wy33n","NaN","<div style=""width:500px;"">
                                <p style=""font-size:50px; font-weight:bold;""
                                ></p>
                                <div style=""width:240px; margin: auto;"">
                                    <img src=""images/D111.png"" style= ""width:200px""alt=""img"">
                                </div>
                            </div>","-200","","0","images/D111.png","","","","[""Blobby"",""Stripey""]"
"","","","","","html-slider-response","45","32843198","0.0-37.0","o1lq2wy33n","NaN","<div style=""width:500px;"">
                                <p style=""font-size:50px; font-weight:bold;""
                                ></p>
                                <div style=""width:240px; margin: auto;"">
                                    <img src=""images/D20.png"" style= ""width:200px""alt=""img"">
                                </div>
                            </div>","200","","0","images/D20.png","","","","[""Blobby"",""Stripey""]"
"","","","","","html-slider-response","46","32848748","0.0-38.0","o1lq2wy33n","NaN","<div style=""width:500px;"">
                                <p style=""font-size:50px; font-weight:bold;""
                                ></p>
                                <div style=""width:240px; margin: auto;"">
                                    <img src=""images/D16.png"" style= ""width:200px""alt=""img"">
                                </div>
                            </div>","76","","0","images/D16.png","","","","[""Blobby"",""Stripey""]"
"","","","","","html-slider-response","47","32854091","0.0-39.0","o1lq2wy33n","NaN","<div style=""width:500px;"">
                                <p style=""font-size:50px; font-weight:bold;""
                                ></p>
                                <div style=""width:240px; margin: auto;"">
                                    <img src=""images/D22.png"" style= ""width:200px""alt=""img"">
                                </div>
                            </div>","37","","0","images/D22.png","","","","[""Blobby"",""Stripey""]"
"","","","","","html-slider-response","48","32864794","0.0-40.0","o1lq2wy33n","NaN","<div style=""width:500px;"">
                                <p style=""font-size:50px; font-weight:bold;""
                                ></p>
                                <div style=""width:240px; margin: auto;"">
                                    <img src=""images/D52.png"" style= ""width:200px""alt=""img"">
                                </div>
                            </div>","-27","","0","images/D52.png","","","","[""Blobby"",""Stripey""]"
"","","","","","html-slider-response","49","32867260","0.0-41.0","o1lq2wy33n","NaN","<div style=""width:500px;"">
                                <p style=""font-size:50px; font-weight:bold;""
                                ></p>
                                <div style=""width:240px; margin: auto;"">
                                    <img src=""images/D4.png"" style= ""width:200px""alt=""img"">
                                </div>
                            </div>","-200","","0","images/D4.png","","","","[""Blobby"",""Stripey""]"
"","","","","","html-slider-response","50","32871820","0.0-42.0","o1lq2wy33n","NaN","<div style=""width:500px;"">
                                <p style=""font-size:50px; font-weight:bold;""
                                ></p>
                                <div style=""width:240px; margin: auto;"">
                                    <img src=""images/D48.png"" style= ""width:200px""alt=""img"">
                                </div>
                            </div>","-200","","0","images/D48.png","","","","[""Blobby"",""Stripey""]"
"","","","","","html-slider-response","51","32874373","0.0-43.0","o1lq2wy33n","NaN","<div style=""width:500px;"">
                                <p style=""font-size:50px; font-weight:bold;""
                                ></p>
                                <div style=""width:240px; margin: auto;"">
                                    <img src=""images/D66.png"" style= ""width:200px""alt=""img"">
                                </div>
                            </div>","-200","","0","images/D66.png","","","","[""Blobby"",""Stripey""]"
"","","","","","html-slider-response","52","32879527","0.0-44.0","o1lq2wy33n","NaN","<div style=""width:500px;"">
                                <p style=""font-size:50px; font-weight:bold;""
                                ></p>
                                <div style=""width:240px; margin: auto;"">
                                    <img src=""images/D49.png"" style= ""width:200px""alt=""img"">
                                </div>
                            </div>","114","","0","images/D49.png","","","","[""Blobby"",""Stripey""]"
"","","","","","html-slider-response","53","32882358","0.0-45.0","o1lq2wy33n","NaN","<div style=""width:500px;"">
                                <p style=""font-size:50px; font-weight:bold;""
                                ></p>
                                <div style=""width:240px; margin: auto;"">
                                    <img src=""images/D83.png"" style= ""width:200px""alt=""img"">
                                </div>
                            </div>","200","","0","images/D83.png","","","","[""Blobby"",""Stripey""]"
"","","","","","html-slider-response","54","32884578","0.0-46.0","o1lq2wy33n","NaN","<div style=""width:500px;"">
                                <p style=""font-size:50px; font-weight:bold;""
                                ></p>
                                <div style=""width:240px; margin: auto;"">
                                    <img src=""images/D85.png"" style= ""width:200px""alt=""img"">
                                </div>
                            </div>","200","","0","images/D85.png","","","","[""Blobby"",""Stripey""]"
"","","","","","html-slider-response","55","32886862","0.0-47.0","o1lq2wy33n","NaN","<div style=""width:500px;"">
                                <p style=""font-size:50px; font-weight:bold;""
                                ></p>
                                <div style=""width:240px; margin: auto;"">
                                    <img src=""images/D95.png"" style= ""width:200px""alt=""img"">
                                </div>
                            </div>","200","","0","images/D95.png","","","","[""Blobby"",""Stripey""]"
"","","","","","html-slider-response","56","32891352","0.0-48.0","o1lq2wy33n","NaN","<div style=""width:500px;"">
                                <p style=""font-size:50px; font-weight:bold;""
                                ></p>
                                <div style=""width:240px; margin: auto;"">
                                    <img src=""images/D3.png"" style= ""width:200px""alt=""img"">
                                </div>
                            </div>","-112","","0","images/D3.png","","","","[""Blobby"",""Stripey""]"
"","","","","","html-slider-response","57","32894918","0.0-49.0","o1lq2wy33n","NaN","<div style=""width:500px;"">
                                <p style=""font-size:50px; font-weight:bold;""
                                ></p>
                                <div style=""width:240px; margin: auto;"">
                                    <img src=""images/D79.png"" style= ""width:200px""alt=""img"">
                                </div>
                            </div>","96","","0","images/D79.png","","","","[""Blobby"",""Stripey""]"
"","","","","","html-slider-response","58","32898909","0.0-50.0","o1lq2wy33n","NaN","<div style=""width:500px;"">
                                <p style=""font-size:50px; font-weight:bold;""
                                ></p>
                                <div style=""width:240px; margin: auto;"">
                                    <img src=""images/D36.png"" style= ""width:200px""alt=""img"">
                                </div>
                            </div>","-90","","0","images/D36.png","","","","[""Blobby"",""Stripey""]"
"","","","","","html-slider-response","59","32904332","0.0-51.0","o1lq2wy33n","NaN","<div style=""width:500px;"">
                                <p style=""font-size:50px; font-weight:bold;""
                                ></p>
                                <div style=""width:240px; margin: auto;"">
                                    <img src=""images/D65.png"" style= ""width:200px""alt=""img"">
                                </div>
                            </div>","200","","0","images/D65.png","","","","[""Blobby"",""Stripey""]"
"","","","","","html-slider-response","60","32907865","0.0-52.0","o1lq2wy33n","NaN","<div style=""width:500px;"">
                                <p style=""font-size:50px; font-weight:bold;""
                                ></p>
                                <div style=""width:240px; margin: auto;"">
                                    <img src=""images/D17.png"" style= ""width:200px""alt=""img"">
                                </div>
                            </div>","86","","0","images/D17.png","","","","[""Blobby"",""Stripey""]"
"","","","","","html-slider-response","61","32911999","0.0-53.0","o1lq2wy33n","NaN","<div style=""width:500px;"">
                                <p style=""font-size:50px; font-weight:bold;""
                                ></p>
                                <div style=""width:240px; margin: auto;"">
                                    <img src=""images/D78.png"" style= ""width:200px""alt=""img"">
                                </div>
                            </div>","76","","0","images/D78.png","","","","[""Blobby"",""Stripey""]"
"","","","","","html-slider-response","62","32915240","0.0-54.0","o1lq2wy33n","NaN","<div style=""width:500px;"">
                                <p style=""font-size:50px; font-weight:bold;""
                                ></p>
                                <div style=""width:240px; margin: auto;"">
                                    <img src=""images/D96.png"" style= ""width:200px""alt=""img"">
                                </div>
                            </div>","200","","0","images/D96.png","","","","[""Blobby"",""Stripey""]"
"","","","","","html-slider-response","63","32917249","0.0-55.0","o1lq2wy33n","NaN","<div style=""width:500px;"">
                                <p style=""font-size:50px; font-weight:bold;""
                                ></p>
                                <div style=""width:240px; margin: auto;"">
                                    <img src=""images/D11.png"" style= ""width:200px""alt=""img"">
                                </div>
                            </div>","200","","0","images/D11.png","","","","[""Blobby"",""Stripey""]"
"","","","","","html-slider-response","64","32939941","0.0-56.0","o1lq2wy33n","NaN","<div style=""width:500px;"">
                                <p style=""font-size:50px; font-weight:bold;""
                                ></p>
                                <div style=""width:240px; margin: auto;"">
                                    <img src=""images/D37.png"" style= ""width:200px""alt=""img"">
                                </div>
                            </div>","-200","","0","images/D37.png","","","","[""Blobby"",""Stripey""]"
"","","","","","html-slider-response","65","32941932","0.0-57.0","o1lq2wy33n","NaN","<div style=""width:500px;"">
                                <p style=""font-size:50px; font-weight:bold;""
                                ></p>
                                <div style=""width:240px; margin: auto;"">
                                    <img src=""images/D32.png"" style= ""width:200px""alt=""img"">
                                </div>
                            </div>","-200","","0","images/D32.png","","","","[""Blobby"",""Stripey""]"
"","","","","","html-slider-response","66","32945900","0.0-58.0","o1lq2wy33n","NaN","<div style=""width:500px;"">
                                <p style=""font-size:50px; font-weight:bold;""
                                ></p>
                                <div style=""width:240px; margin: auto;"">
                                    <img src=""images/D35.png"" style= ""width:200px""alt=""img"">
                                </div>
                            </div>","59","","0","images/D35.png","","","","[""Blobby"",""Stripey""]"
"","","","","","html-slider-response","67","32948296","0.0-59.0","o1lq2wy33n","NaN","<div style=""width:500px;"">
                                <p style=""font-size:50px; font-weight:bold;""
                                ></p>
                                <div style=""width:240px; margin: auto;"">
                                    <img src=""images/D103.png"" style= ""width:200px""alt=""img"">
                                </div>
                            </div>","42","","0","images/D103.png","","","","[""Blobby"",""Stripey""]"
"","","","","","html-slider-response","68","32951926","0.0-60.0","o1lq2wy33n","NaN","<div style=""width:500px;"">
                                <p style=""font-size:50px; font-weight:bold;""
                                ></p>
                                <div style=""width:240px; margin: auto;"">
                                    <img src=""images/D46.png"" style= ""width:200px""alt=""img"">
                                </div>
                            </div>","113","","0","images/D46.png","","","","[""Blobby"",""Stripey""]"
"","","","","","html-slider-response","69","32953926","0.0-61.0","o1lq2wy33n","NaN","<div style=""width:500px;"">
                                <p style=""font-size:50px; font-weight:bold;""
                                ></p>
                                <div style=""width:240px; margin: auto;"">
                                    <img src=""images/D47.png"" style= ""width:200px""alt=""img"">
                                </div>
                            </div>","101","","0","images/D47.png","","","","[""Blobby"",""Stripey""]"
"","","","","","html-slider-response","70","32956084","0.0-62.0","o1lq2wy33n","NaN","<div style=""width:500px;"">
                                <p style=""font-size:50px; font-weight:bold;""
                                ></p>
                                <div style=""width:240px; margin: auto;"">
                                    <img src=""images/D77.png"" style= ""width:200px""alt=""img"">
                                </div>
                            </div>","-200","","0","images/D77.png","","","","[""Blobby"",""Stripey""]"
"","","","","","html-slider-response","71","32961291","0.0-63.0","o1lq2wy33n","NaN","<div style=""width:500px;"">
                                <p style=""font-size:50px; font-weight:bold;""
                                ></p>
                                <div style=""width:240px; margin: auto;"">
                                    <img src=""images/D8.png"" style= ""width:200px""alt=""img"">
                                </div>
                            </div>","166","","0","images/D8.png","","","","[""Blobby"",""Stripey""]"
"","","","","","html-slider-response","72","32964137","0.0-64.0","o1lq2wy33n","NaN","<div style=""width:500px;"">
                                <p style=""font-size:50px; font-weight:bold;""
                                ></p>
                                <div style=""width:240px; margin: auto;"">
                                    <img src=""images/D102.png"" style= ""width:200px""alt=""img"">
                                </div>
                            </div>","166","","0","images/D102.png","","","","[""Blobby"",""Stripey""]"
"","","","","","html-slider-response","73","32966326","0.0-65.0","o1lq2wy33n","NaN","<div style=""width:500px;"">
                                <p style=""font-size:50px; font-weight:bold;""
                                ></p>
                                <div style=""width:240px; margin: auto;"">
                                    <img src=""images/D24.png"" style= ""width:200px""alt=""img"">
                                </div>
                            </div>","-200","","0","images/D24.png","","","","[""Blobby"",""Stripey""]"
"","","","","","html-slider-response","74","32968059","0.0-66.0","o1lq2wy33n","NaN","<div style=""width:500px;"">
                                <p style=""font-size:50px; font-weight:bold;""
                                ></p>
                                <div style=""width:240px; margin: auto;"">
                                    <img src=""images/D92.png"" style= ""width:200px""alt=""img"">
                                </div>
                            </div>","-193","","0","images/D92.png","","","","[""Blobby"",""Stripey""]"
"","","","","","html-slider-response","75","32970666","0.0-67.0","o1lq2wy33n","NaN","<div style=""width:500px;"">
                                <p style=""font-size:50px; font-weight:bold;""
                                ></p>
                                <div style=""width:240px; margin: auto;"">
                                    <img src=""images/D18.png"" style= ""width:200px""alt=""img"">
                                </div>
                            </div>","87","","0","images/D18.png","","","","[""Blobby"",""Stripey""]"
"","","","","","html-slider-response","76","32972727","0.0-68.0","o1lq2wy33n","NaN","<div style=""width:500px;"">
                                <p style=""font-size:50px; font-weight:bold;""
                                ></p>
                                <div style=""width:240px; margin: auto;"">
                                    <img src=""images/D26.png"" style= ""width:200px""alt=""img"">
                                </div>
                            </div>","200","","0","images/D26.png","","","","[""Blobby"",""Stripey""]"
"","","","","","html-slider-response","77","32976752","0.0-69.0","o1lq2wy33n","NaN","<div style=""width:500px;"">
                                <p style=""font-size:50px; font-weight:bold;""
                                ></p>
                                <div style=""width:240px; margin: auto;"">
                                    <img src=""images/D1.png"" style= ""width:200px""alt=""img"">
                                </div>
                            </div>","200","","0","images/D1.png","","","","[""Blobby"",""Stripey""]"
"","","","","","html-slider-response","78","32978412","0.0-70.0","o1lq2wy33n","NaN","<div style=""width:500px;"">
                                <p style=""font-size:50px; font-weight:bold;""
                                ></p>
                                <div style=""width:240px; margin: auto;"">
                                    <img src=""images/D94.png"" style= ""width:200px""alt=""img"">
                                </div>
                            </div>","200","","0","images/D94.png","","","","[""Blobby"",""Stripey""]"
"","","","","","html-slider-response","79","32980088","0.0-71.0","o1lq2wy33n","NaN","<div style=""width:500px;"">
                                <p style=""font-size:50px; font-weight:bold;""
                                ></p>
                                <div style=""width:240px; margin: auto;"">
                                    <img src=""images/D84.png"" style= ""width:200px""alt=""img"">
                                </div>
                            </div>","-200","","0","images/D84.png","","","","[""Blobby"",""Stripey""]"
"","","","","","html-slider-response","80","32982152","0.0-72.0","o1lq2wy33n","NaN","<div style=""width:500px;"">
                                <p style=""font-size:50px; font-weight:bold;""
                                ></p>
                                <div style=""width:240px; margin: auto;"">
                                    <img src=""images/D82.png"" style= ""width:200px""alt=""img"">
                                </div>
                            </div>","-200","","0","images/D82.png","","","","[""Blobby"",""Stripey""]"
"","","","","","html-slider-response","81","32987163","0.0-73.0","o1lq2wy33n","NaN","<div style=""width:500px;"">
                                <p style=""font-size:50px; font-weight:bold;""
                                ></p>
                                <div style=""width:240px; margin: auto;"">
                                    <img src=""images/D80.png"" style= ""width:200px""alt=""img"">
                                </div>
                            </div>","-42","","0","images/D80.png","","","","[""Blobby"",""Stripey""]"
"","","","","","html-slider-response","82","32991723","0.0-74.0","o1lq2wy33n","NaN","<div style=""width:500px;"">
                                <p style=""font-size:50px; font-weight:bold;""
                                ></p>
                                <div style=""width:240px; margin: auto;"">
                                    <img src=""images/D101.png"" style= ""width:200px""alt=""img"">
                                </div>
                            </div>","161","","0","images/D101.png","","","","[""Blobby"",""Stripey""]"
"","","","","","html-slider-response","83","33002773","0.0-75.0","o1lq2wy33n","NaN","<div style=""width:500px;"">
                                <p style=""font-size:50px; font-weight:bold;""
                                ></p>
                                <div style=""width:240px; margin: auto;"">
                                    <img src=""images/D64.png"" style= ""width:200px""alt=""img"">
                                </div>
                            </div>","191","","0","images/D64.png","","","","[""Blobby"",""Stripey""]"
"","","","","","html-button-response","84","33023276","0.0-76.0","o1lq2wy33n","19999","You have completed the first block of trials out of six. Please click 'Continue' when you are ready proceed.","0","","","","","","",""
"","","","","","html-button-response","85","33024556","0.0-77.0","o1lq2wy33n","1279","In the following trials, you will be asked to rate textures on the scale <b>Rounded</b> versus <b>Rectangular</b>. Please click 'Continue' when you are ready proceed.","0","","","","","","",""
"","","","","","html-slider-response","86","33029034","0.0-78.0","o1lq2wy33n","NaN","<div style=""width:500px;"">
                                <p style=""font-size:50px; font-weight:bold;""
                                ></p>
                                <div style=""width:240px; margin: auto;"">
                                    <img src=""images/D111.png"" style= ""width:200px""alt=""img"">
                                </div>
                            </div>","-200","","0","images/D111.png","","","","[""Rounded"",""Rectangular""]"
"","","","","","html-slider-response","87","33033359","0.0-79.0","o1lq2wy33n","NaN","<div style=""width:500px;"">
                                <p style=""font-size:50px; font-weight:bold;""
                                ></p>
                                <div style=""width:240px; margin: auto;"">
                                    <img src=""images/D104.png"" style= ""width:200px""alt=""img"">
                                </div>
                            </div>","200","","0","images/D104.png","","","","[""Rounded"",""Rectangular""]"
"","","","","","html-slider-response","88","33036582","0.0-80.0","o1lq2wy33n","NaN","<div style=""width:500px;"">
                                <p style=""font-size:50px; font-weight:bold;""
                                ></p>
                                <div style=""width:240px; margin: auto;"">
                                    <img src=""images/D51.png"" style= ""width:200px""alt=""img"">
                                </div>
                            </div>","200","","0","images/D51.png","","","","[""Rounded"",""Rectangular""]"
"","","","","","html-slider-response","89","33040924","0.0-81.0","o1lq2wy33n","NaN","<div style=""width:500px;"">
                                <p style=""font-size:50px; font-weight:bold;""
                                ></p>
                                <div style=""width:240px; margin: auto;"">
                                    <img src=""images/D36.png"" style= ""width:200px""alt=""img"">
                                </div>
                            </div>","-200","","0","images/D36.png","","","","[""Rounded"",""Rectangular""]"
"","","","","","html-slider-response","90","33046162","0.0-82.0","o1lq2wy33n","NaN","<div style=""width:500px;"">
                                <p style=""font-size:50px; font-weight:bold;""
                                ></p>
                                <div style=""width:240px; margin: auto;"">
                                    <img src=""images/D68.png"" style= ""width:200px""alt=""img"">
                                </div>
                            </div>","1","","0","images/D68.png","","","","[""Rounded"",""Rectangular""]"
"","","","","","html-slider-response","91","33048527","0.0-83.0","o1lq2wy33n","NaN","<div style=""width:500px;"">
                                <p style=""font-size:50px; font-weight:bold;""
                                ></p>
                                <div style=""width:240px; margin: auto;"">
                                    <img src=""images/D4.png"" style= ""width:200px""alt=""img"">
                                </div>
                            </div>","-200","","0","images/D4.png","","","","[""Rounded"",""Rectangular""]"
"","","","","","html-slider-response","92","33050232","0.0-84.0","o1lq2wy33n","NaN","<div style=""width:500px;"">
                                <p style=""font-size:50px; font-weight:bold;""
                                ></p>
                                <div style=""width:240px; margin: auto;"">
                                    <img src=""images/D26.png"" style= ""width:200px""alt=""img"">
                                </div>
                            </div>","200","","0","images/D26.png","","","","[""Rounded"",""Rectangular""]"
"","","","","","html-slider-response","93","33054879","0.0-85.0","o1lq2wy33n","NaN","<div style=""width:500px;"">
                                <p style=""font-size:50px; font-weight:bold;""
                                ></p>
                                <div style=""width:240px; margin: auto;"">
                                    <img src=""images/D6.png"" style= ""width:200px""alt=""img"">
                                </div>
                            </div>","2","","0","images/D6.png","","","","[""Rounded"",""Rectangular""]"
"","","","","","html-slider-response","94","33058882","0.0-86.0","o1lq2wy33n","NaN","<div style=""width:500px;"">
                                <p style=""font-size:50px; font-weight:bold;""
                                ></p>
                                <div style=""width:240px; margin: auto;"">
                                    <img src=""images/D16.png"" style= ""width:200px""alt=""img"">
                                </div>
                            </div>","42","","0","images/D16.png","","","","[""Rounded"",""Rectangular""]"
"","","","","","html-slider-response","95","33062796","0.0-87.0","o1lq2wy33n","NaN","<div style=""width:500px;"">
                                <p style=""font-size:50px; font-weight:bold;""
                                ></p>
                                <div style=""width:240px; margin: auto;"">
                                    <img src=""images/D57.png"" style= ""width:200px""alt=""img"">
                                </div>
                            </div>","-157","","0","images/D57.png","","","","[""Rounded"",""Rectangular""]"
"","","","","","html-slider-response","96","33067443","0.0-88.0","o1lq2wy33n","NaN","<div style=""width:500px;"">
                                <p style=""font-size:50px; font-weight:bold;""
                                ></p>
                                <div style=""width:240px; margin: auto;"">
                                    <img src=""images/D85.png"" style= ""width:200px""alt=""img"">
                                </div>
                            </div>","200","","0","images/D85.png","","","","[""Rounded"",""Rectangular""]"
"","","","","","html-slider-response","97","33072161","0.0-89.0","o1lq2wy33n","NaN","<div style=""width:500px;"">
                                <p style=""font-size:50px; font-weight:bold;""
                                ></p>
                                <div style=""width:240px; margin: auto;"">
                                    <img src=""images/D3.png"" style= ""width:200px""alt=""img"">
                                </div>
                            </div>","-110","","0","images/D3.png","","","","[""Rounded"",""Rectangular""]"
"","","","","","html-slider-response","98","33075979","0.0-90.0","o1lq2wy33n","NaN","<div style=""width:500px;"">
                                <p style=""font-size:50px; font-weight:bold;""
                                ></p>
                                <div style=""width:240px; margin: auto;"">
                                    <img src=""images/D65.png"" style= ""width:200px""alt=""img"">
                                </div>
                            </div>","200","","0","images/D65.png","","","","[""Rounded"",""Rectangular""]"
"","","","","","html-slider-response","99","33079070","0.0-91.0","o1lq2wy33n","NaN","<div style=""width:500px;"">
                                <p style=""font-size:50px; font-weight:bold;""
                                ></p>
                                <div style=""width:240px; margin: auto;"">
                                    <img src=""images/D19.png"" style= ""width:200px""alt=""img"">
                                </div>
                            </div>","-200","","0","images/D19.png","","","","[""Rounded"",""Rectangular""]"
"","","","","","html-slider-response","100","33110446","0.0-92.0","o1lq2wy33n","NaN","<div style=""width:500px;"">
                                <p style=""font-size:50px; font-weight:bold;""
                                ></p>
                                <div style=""width:240px; margin: auto;"">
                                    <img src=""images/D56.png"" style= ""width:200px""alt=""img"">
                                </div>
                            </div>","200","","0","images/D56.png","","","","[""Rounded"",""Rectangular""]"
"","","","","","html-slider-response","101","33113693","0.0-93.0","o1lq2wy33n","NaN","<div style=""width:500px;"">
                                <p style=""font-size:50px; font-weight:bold;""
                                ></p>
                                <div style=""width:240px; margin: auto;"">
                                    <img src=""images/D53.png"" style= ""width:200px""alt=""img"">
                                </div>
                            </div>","-78","","0","images/D53.png","","","","[""Rounded"",""Rectangular""]"
"","","","","","html-slider-response","102","33116215","0.0-94.0","o1lq2wy33n","NaN","<div style=""width:500px;"">
                                <p style=""font-size:50px; font-weight:bold;""
                                ></p>
                                <div style=""width:240px; margin: auto;"">
                                    <img src=""images/D84.png"" style= ""width:200px""alt=""img"">
                                </div>
                            </div>","-200","","0","images/D84.png","","","","[""Rounded"",""Rectangular""]"
"","","","","","html-slider-response","103","33118136","0.0-95.0","o1lq2wy33n","NaN","<div style=""width:500px;"">
                                <p style=""font-size:50px; font-weight:bold;""
                                ></p>
                                <div style=""width:240px; margin: auto;"">
                                    <img src=""images/D66.png"" style= ""width:200px""alt=""img"">
                                </div>
                            </div>","-200","","0","images/D66.png","","","","[""Rounded"",""Rectangular""]"
"","","","","","html-slider-response","104","33119677","0.0-96.0","o1lq2wy33n","NaN","<div style=""width:500px;"">
                                <p style=""font-size:50px; font-weight:bold;""
                                ></p>
                                <div style=""width:240px; margin: auto;"">
                                    <img src=""images/D76.png"" style= ""width:200px""alt=""img"">
                                </div>
                            </div>","200","","0","images/D76.png","","","","[""Rounded"",""Rectangular""]"
"","","","","","html-slider-response","105","33121574","0.0-97.0","o1lq2wy33n","NaN","<div style=""width:500px;"">
                                <p style=""font-size:50px; font-weight:bold;""
                                ></p>
                                <div style=""width:240px; margin: auto;"">
                                    <img src=""images/D1.png"" style= ""width:200px""alt=""img"">
                                </div>
                            </div>","200","","0","images/D1.png","","","","[""Rounded"",""Rectangular""]"
"","","","","","html-slider-response","106","33123503","0.0-98.0","o1lq2wy33n","NaN","<div style=""width:500px;"">
                                <p style=""font-size:50px; font-weight:bold;""
                                ></p>
                                <div style=""width:240px; margin: auto;"">
                                    <img src=""images/D92.png"" style= ""width:200px""alt=""img"">
                                </div>
                            </div>","-200","","0","images/D92.png","","","","[""Rounded"",""Rectangular""]"
"","","","","","html-slider-response","107","33126390","0.0-99.0","o1lq2wy33n","NaN","<div style=""width:500px;"">
                                <p style=""font-size:50px; font-weight:bold;""
                                ></p>
                                <div style=""width:240px; margin: auto;"">
                                    <img src=""images/D37.png"" style= ""width:200px""alt=""img"">
                                </div>
                            </div>","-200","","0","images/D37.png","","","","[""Rounded"",""Rectangular""]"
"","","","","","html-slider-response","108","33128786","0.0-100.0","o1lq2wy33n","NaN","<div style=""width:500px;"">
                                <p style=""font-size:50px; font-weight:bold;""
                                ></p>
                                <div style=""width:240px; margin: auto;"">
                                    <img src=""images/D102.png"" style= ""width:200px""alt=""img"">
                                </div>
                            </div>","-196","","0","images/D102.png","","","","[""Rounded"",""Rectangular""]"
"","","","","","html-slider-response","109","33133236","0.0-101.0","o1lq2wy33n","NaN","<div style=""width:500px;"">
                                <p style=""font-size:50px; font-weight:bold;""
                                ></p>
                                <div style=""width:240px; margin: auto;"">
                                    <img src=""images/D21.png"" style= ""width:200px""alt=""img"">
                                </div>
                            </div>","3","","0","images/D21.png","","","","[""Rounded"",""Rectangular""]"
"","","","","","html-slider-response","110","33135655","0.0-102.0","o1lq2wy33n","NaN","<div style=""width:500px;"">
                                <p style=""font-size:50px; font-weight:bold;""
                                ></p>
                                <div style=""width:240px; margin: auto;"">
                                    <img src=""images/D9.png"" style= ""width:200px""alt=""img"">
                                </div>
                            </div>","-200","","0","images/D9.png","","","","[""Rounded"",""Rectangular""]"
"","","","","","html-slider-response","111","33138674","0.0-103.0","o1lq2wy33n","NaN","<div style=""width:500px;"">
                                <p style=""font-size:50px; font-weight:bold;""
                                ></p>
                                <div style=""width:240px; margin: auto;"">
                                    <img src=""images/D52.png"" style= ""width:200px""alt=""img"">
                                </div>
                            </div>","60","","0","images/D52.png","","","","[""Rounded"",""Rectangular""]"
"","","","","","html-slider-response","112","33141147","0.0-104.0","o1lq2wy33n","NaN","<div style=""width:500px;"">
                                <p style=""font-size:50px; font-weight:bold;""
                                ></p>
                                <div style=""width:240px; margin: auto;"">
                                    <img src=""images/D55.png"" style= ""width:200px""alt=""img"">
                                </div>
                            </div>","53","","0","images/D55.png","","","","[""Rounded"",""Rectangular""]"
"","","","","","html-slider-response","113","33146375","0.0-105.0","o1lq2wy33n","NaN","<div style=""width:500px;"">
                                <p style=""font-size:50px; font-weight:bold;""
                                ></p>
                                <div style=""width:240px; margin: auto;"">
                                    <img src=""images/D20.png"" style= ""width:200px""alt=""img"">
                                </div>
                            </div>","200","","0","images/D20.png","","","","[""Rounded"",""Rectangular""]"
"","","","","","html-slider-response","114","33148075","0.0-106.0","o1lq2wy33n","NaN","<div style=""width:500px;"">
                                <p style=""font-size:50px; font-weight:bold;""
                                ></p>
                                <div style=""width:240px; margin: auto;"">
                                    <img src=""images/D48.png"" style= ""width:200px""alt=""img"">
                                </div>
                            </div>","-200","","0","images/D48.png","","","","[""Rounded"",""Rectangular""]"
"","","","","","html-slider-response","115","33149745","0.0-107.0","o1lq2wy33n","NaN","<div style=""width:500px;"">
                                <p style=""font-size:50px; font-weight:bold;""
                                ></p>
                                <div style=""width:240px; margin: auto;"">
                                    <img src=""images/D75.png"" style= ""width:200px""alt=""img"">
                                </div>
                            </div>","-200","","0","images/D75.png","","","","[""Rounded"",""Rectangular""]"
"","","","","","html-slider-response","116","33152605","0.0-108.0","o1lq2wy33n","NaN","<div style=""width:500px;"">
                                <p style=""font-size:50px; font-weight:bold;""
                                ></p>
                                <div style=""width:240px; margin: auto;"">
                                    <img src=""images/D17.png"" style= ""width:200px""alt=""img"">
                                </div>
                            </div>","76","","0","images/D17.png","","","","[""Rounded"",""Rectangular""]"
"","","","","","html-slider-response","117","33154392","0.0-109.0","o1lq2wy33n","NaN","<div style=""width:500px;"">
                                <p style=""font-size:50px; font-weight:bold;""
                                ></p>
                                <div style=""width:240px; margin: auto;"">
                                    <img src=""images/D47.png"" style= ""width:200px""alt=""img"">
                                </div>
                            </div>","200","","0","images/D47.png","","","","[""Rounded"",""Rectangular""]"
"","","","","","html-slider-response","118","33156557","0.0-110.0","o1lq2wy33n","NaN","<div style=""width:500px;"">
                                <p style=""font-size:50px; font-weight:bold;""
                                ></p>
                                <div style=""width:240px; margin: auto;"">
                                    <img src=""images/D105.png"" style= ""width:200px""alt=""img"">
                                </div>
                            </div>","200","","0","images/D105.png","","","","[""Rounded"",""Rectangular""]"
"","","","","","html-slider-response","119","33158524","0.0-111.0","o1lq2wy33n","NaN","<div style=""width:500px;"">
                                <p style=""font-size:50px; font-weight:bold;""
                                ></p>
                                <div style=""width:240px; margin: auto;"">
                                    <img src=""images/D101.png"" style= ""width:200px""alt=""img"">
                                </div>
                            </div>","-200","","0","images/D101.png","","","","[""Rounded"",""Rectangular""]"
"","","","","","html-slider-response","120","33160091","0.0-112.0","o1lq2wy33n","NaN","<div style=""width:500px;"">
                                <p style=""font-size:50px; font-weight:bold;""
                                ></p>
                                <div style=""width:240px; margin: auto;"">
                                    <img src=""images/D29.png"" style= ""width:200px""alt=""img"">
                                </div>
                            </div>","-200","","0","images/D29.png","","","","[""Rounded"",""Rectangular""]"
"","","","","","html-slider-response","121","33162509","0.0-113.0","o1lq2wy33n","NaN","<div style=""width:500px;"">
                                <p style=""font-size:50px; font-weight:bold;""
                                ></p>
                                <div style=""width:240px; margin: auto;"">
                                    <img src=""images/D78.png"" style= ""width:200px""alt=""img"">
                                </div>
                            </div>","67","","0","images/D78.png","","","","[""Rounded"",""Rectangular""]"
"","","","","","html-slider-response","122","33167773","0.0-114.0","o1lq2wy33n","NaN","<div style=""width:500px;"">
                                <p style=""font-size:50px; font-weight:bold;""
                                ></p>
                                <div style=""width:240px; margin: auto;"">
                                    <img src=""images/D80.png"" style= ""width:200px""alt=""img"">
                                </div>
                            </div>","-80","","0","images/D80.png","","","","[""Rounded"",""Rectangular""]"
"","","","","","html-slider-response","123","33170373","0.0-115.0","o1lq2wy33n","NaN","<div style=""width:500px;"">
                                <p style=""font-size:50px; font-weight:bold;""
                                ></p>
                                <div style=""width:240px; margin: auto;"">
                                    <img src=""images/D46.png"" style= ""width:200px""alt=""img"">
                                </div>
                            </div>","200","","0","images/D46.png","","","","[""Rounded"",""Rectangular""]"
"","","","","","html-slider-response","124","33174485","0.0-116.0","o1lq2wy33n","NaN","<div style=""width:500px;"">
                                <p style=""font-size:50px; font-weight:bold;""
                                ></p>
                                <div style=""width:240px; margin: auto;"">
                                    <img src=""images/D87.png"" style= ""width:200px""alt=""img"">
                                </div>
                            </div>","-198","","0","images/D87.png","","","","[""Rounded"",""Rectangular""]"
"","","","","","html-slider-response","125","33176855","0.0-117.0","o1lq2wy33n","NaN","<div style=""width:500px;"">
                                <p style=""font-size:50px; font-weight:bold;""
                                ></p>
                                <div style=""width:240px; margin: auto;"">
                                    <img src=""images/D11.png"" style= ""width:200px""alt=""img"">
                                </div>
                            </div>","200","","0","images/D11.png","","","","[""Rounded"",""Rectangular""]"
"","","","","","html-slider-response","126","33178706","0.0-118.0","o1lq2wy33n","NaN","<div style=""width:500px;"">
                                <p style=""font-size:50px; font-weight:bold;""
                                ></p>
                                <div style=""width:240px; margin: auto;"">
                                    <img src=""images/D34.png"" style= ""width:200px""alt=""img"">
                                </div>
                            </div>","-190","","0","images/D34.png","","","","[""Rounded"",""Rectangular""]"
"","","","","","html-slider-response","127","33181733","0.0-119.0","o1lq2wy33n","NaN","<div style=""width:500px;"">
                                <p style=""font-size:50px; font-weight:bold;""
                                ></p>
                                <div style=""width:240px; margin: auto;"">
                                    <img src=""images/D18.png"" style= ""width:200px""alt=""img"">
                                </div>
                            </div>","171","","0","images/D18.png","","","","[""Rounded"",""Rectangular""]"
"","","","","","html-slider-response","128","33184642","0.0-120.0","o1lq2wy33n","NaN","<div style=""width:500px;"">
                                <p style=""font-size:50px; font-weight:bold;""
                                ></p>
                                <div style=""width:240px; margin: auto;"">
                                    <img src=""images/D103.png"" style= ""width:200px""alt=""img"">
                                </div>
                            </div>","58","","0","images/D103.png","","","","[""Rounded"",""Rectangular""]"
"","","","","","html-slider-response","129","33186467","0.0-121.0","o1lq2wy33n","NaN","<div style=""width:500px;"">
                                <p style=""font-size:50px; font-weight:bold;""
                                ></p>
                                <div style=""width:240px; margin: auto;"">
                                    <img src=""images/D49.png"" style= ""width:200px""alt=""img"">
                                </div>
                            </div>","127","","0","images/D49.png","","","","[""Rounded"",""Rectangular""]"
"","","","","","html-slider-response","130","33188103","0.0-122.0","o1lq2wy33n","NaN","<div style=""width:500px;"">
                                <p style=""font-size:50px; font-weight:bold;""
                                ></p>
                                <div style=""width:240px; margin: auto;"">
                                    <img src=""images/D74.png"" style= ""width:200px""alt=""img"">
                                </div>
                            </div>","-200","","0","images/D74.png","","","","[""Rounded"",""Rectangular""]"
"","","","","","html-slider-response","131","33191526","0.0-123.0","o1lq2wy33n","NaN","<div style=""width:500px;"">
                                <p style=""font-size:50px; font-weight:bold;""
                                ></p>
                                <div style=""width:240px; margin: auto;"">
                                    <img src=""images/D106.png"" style= ""width:200px""alt=""img"">
                                </div>
                            </div>","200","","0","images/D106.png","","","","[""Rounded"",""Rectangular""]"
"","","","","","html-slider-response","132","33194523","0.0-124.0","o1lq2wy33n","NaN","<div style=""width:500px;"">
                                <p style=""font-size:50px; font-weight:bold;""
                                ></p>
                                <div style=""width:240px; margin: auto;"">
                                    <img src=""images/D81.png"" style= ""width:200px""alt=""img"">
                                </div>
                            </div>","-109","","0","images/D81.png","","","","[""Rounded"",""Rectangular""]"
"","","","","","html-slider-response","133","33196791","0.0-125.0","o1lq2wy33n","NaN","<div style=""width:500px;"">
                                <p style=""font-size:50px; font-weight:bold;""
                                ></p>
                                <div style=""width:240px; margin: auto;"">
                                    <img src=""images/D32.png"" style= ""width:200px""alt=""img"">
                                </div>
                            </div>","-107","","0","images/D32.png","","","","[""Rounded"",""Rectangular""]"
"","","","","","html-slider-response","134","33199114","0.0-126.0","o1lq2wy33n","NaN","<div style=""width:500px;"">
                                <p style=""font-size:50px; font-weight:bold;""
                                ></p>
                                <div style=""width:240px; margin: auto;"">
                                    <img src=""images/D22.png"" style= ""width:200px""alt=""img"">
                                </div>
                            </div>","-96","","0","images/D22.png","","","","[""Rounded"",""Rectangular""]"
"","","","","","html-slider-response","135","33200790","0.0-127.0","o1lq2wy33n","NaN","<div style=""width:500px;"">
                                <p style=""font-size:50px; font-weight:bold;""
                                ></p>
                                <div style=""width:240px; margin: auto;"">
                                    <img src=""images/D94.png"" style= ""width:200px""alt=""img"">
                                </div>
                            </div>","200","","0","images/D94.png","","","","[""Rounded"",""Rectangular""]"
"","","","","","html-slider-response","136","33202546","0.0-128.0","o1lq2wy33n","NaN","<div style=""width:500px;"">
                                <p style=""font-size:50px; font-weight:bold;""
                                ></p>
                                <div style=""width:240px; margin: auto;"">
                                    <img src=""images/D95.png"" style= ""width:200px""alt=""img"">
                                </div>
                            </div>","200","","0","images/D95.png","","","","[""Rounded"",""Rectangular""]"
"","","","","","html-slider-response","137","33206735","0.0-129.0","o1lq2wy33n","NaN","<div style=""width:500px;"">
                                <p style=""font-size:50px; font-weight:bold;""
                                ></p>
                                <div style=""width:240px; margin: auto;"">
                                    <img src=""images/D82.png"" style= ""width:200px""alt=""img"">
                                </div>
                            </div>","42","","0","images/D82.png","","","","[""Rounded"",""Rectangular""]"
"","","","","","html-slider-response","138","33210979","0.0-130.0","o1lq2wy33n","NaN","<div style=""width:500px;"">
                                <p style=""font-size:50px; font-weight:bold;""
                                ></p>
                                <div style=""width:240px; margin: auto;"">
                                    <img src=""images/D8.png"" style= ""width:200px""alt=""img"">
                                </div>
                            </div>","-142","","0","images/D8.png","","","","[""Rounded"",""Rectangular""]"
"","","","","","html-slider-response","139","33212598","0.0-131.0","o1lq2wy33n","NaN","<div style=""width:500px;"">
                                <p style=""font-size:50px; font-weight:bold;""
                                ></p>
                                <div style=""width:240px; margin: auto;"">
                                    <img src=""images/D96.png"" style= ""width:200px""alt=""img"">
                                </div>
                            </div>","200","","0","images/D96.png","","","","[""Rounded"",""Rectangular""]"
"","","","","","html-slider-response","140","33214463","0.0-132.0","o1lq2wy33n","NaN","<div style=""width:500px;"">
                                <p style=""font-size:50px; font-weight:bold;""
                                ></p>
                                <div style=""width:240px; margin: auto;"">
                                    <img src=""images/D24.png"" style= ""width:200px""alt=""img"">
                                </div>
                            </div>","-200","","0","images/D24.png","","","","[""Rounded"",""Rectangular""]"
"","","","","","html-slider-response","141","33215920","0.0-133.0","o1lq2wy33n","NaN","<div style=""width:500px;"">
                                <p style=""font-size:50px; font-weight:bold;""
                                ></p>
                                <div style=""width:240px; margin: auto;"">
                                    <img src=""images/D25.png"" style= ""width:200px""alt=""img"">
                                </div>
                            </div>","200","","0","images/D25.png","","","","[""Rounded"",""Rectangular""]"
"","","","","","html-slider-response","142","33218259","0.0-134.0","o1lq2wy33n","NaN","<div style=""width:500px;"">
                                <p style=""font-size:50px; font-weight:bold;""
                                ></p>
                                <div style=""width:240px; margin: auto;"">
                                    <img src=""images/D64.png"" style= ""width:200px""alt=""img"">
                                </div>
                            </div>","200","","0","images/D64.png","","","","[""Rounded"",""Rectangular""]"
"","","","","","html-slider-response","143","33222352","0.0-135.0","o1lq2wy33n","NaN","<div style=""width:500px;"">
                                <p style=""font-size:50px; font-weight:bold;""
                                ></p>
                                <div style=""width:240px; margin: auto;"">
                                    <img src=""images/D79.png"" style= ""width:200px""alt=""img"">
                                </div>
                            </div>","22","","0","images/D79.png","","","","[""Rounded"",""Rectangular""]"
"","","","","","html-slider-response","144","33224471","0.0-136.0","o1lq2wy33n","NaN","<div style=""width:500px;"">
                                <p style=""font-size:50px; font-weight:bold;""
                                ></p>
                                <div style=""width:240px; margin: auto;"">
                                    <img src=""images/D83.png"" style= ""width:200px""alt=""img"">
                                </div>
                            </div>","67","","0","images/D83.png","","","","[""Rounded"",""Rectangular""]"
"","","","","","html-slider-response","145","33226170","0.0-137.0","o1lq2wy33n","NaN","<div style=""width:500px;"">
                                <p style=""font-size:50px; font-weight:bold;""
                                ></p>
                                <div style=""width:240px; margin: auto;"">
                                    <img src=""images/D77.png"" style= ""width:200px""alt=""img"">
                                </div>
                            </div>","-200","","0","images/D77.png","","","","[""Rounded"",""Rectangular""]"
"","","","","","html-slider-response","146","33228493","0.0-138.0","o1lq2wy33n","NaN","<div style=""width:500px;"">
                                <p style=""font-size:50px; font-weight:bold;""
                                ></p>
                                <div style=""width:240px; margin: auto;"">
                                    <img src=""images/D35.png"" style= ""width:200px""alt=""img"">
                                </div>
                            </div>","-200","","0","images/D35.png","","","","[""Rounded"",""Rectangular""]"
"","","","","","html-slider-response","147","33231569","0.0-139.0","o1lq2wy33n","NaN","<div style=""width:500px;"">
                                <p style=""font-size:50px; font-weight:bold;""
                                ></p>
                                <div style=""width:240px; margin: auto;"">
                                    <img src=""images/D14.png"" style= ""width:200px""alt=""img"">
                                </div>
                            </div>","62","","0","images/D14.png","","","","[""Rounded"",""Rectangular""]"
"","","","","","html-button-response","148","33233802","0.0-140.0","o1lq2wy33n","1731","You have completed the second block of trials out of six. Please click 'Continue' when you are ready proceed.","0","","","","","","",""
"","","","","","html-button-response","149","33235226","0.0-141.0","o1lq2wy33n","1422","In the following trials, you will be asked to rate textures on the scale <b>Random</b> versus <b>Non-Random</b>. Please click 'Continue' when you are ready proceed.","0","","","","","","",""
"","","","","","html-slider-response","150","33239149","0.0-142.0","o1lq2wy33n","NaN","<div style=""width:500px;"">
                                <p style=""font-size:50px; font-weight:bold;""
                                ></p>
                                <div style=""width:240px; margin: auto;"">
                                    <img src=""images/D25.png"" style= ""width:200px""alt=""img"">
                                </div>
                            </div>","200","","0","images/D25.png","","","","[""Random"",""Non-random""]"
"","","","","","html-slider-response","151","33241749","0.0-143.0","o1lq2wy33n","NaN","<div style=""width:500px;"">
                                <p style=""font-size:50px; font-weight:bold;""
                                ></p>
                                <div style=""width:240px; margin: auto;"">
                                    <img src=""images/D105.png"" style= ""width:200px""alt=""img"">
                                </div>
                            </div>","200","","0","images/D105.png","","","","[""Random"",""Non-random""]"
"","","","","","html-slider-response","152","33243140","0.0-144.0","o1lq2wy33n","NaN","<div style=""width:500px;"">
                                <p style=""font-size:50px; font-weight:bold;""
                                ></p>
                                <div style=""width:240px; margin: auto;"">
                                    <img src=""images/D106.png"" style= ""width:200px""alt=""img"">
                                </div>
                            </div>","200","","0","images/D106.png","","","","[""Random"",""Non-random""]"
"","","","","","html-slider-response","153","33246256","0.0-145.0","o1lq2wy33n","NaN","<div style=""width:500px;"">
                                <p style=""font-size:50px; font-weight:bold;""
                                ></p>
                                <div style=""width:240px; margin: auto;"">
                                    <img src=""images/D21.png"" style= ""width:200px""alt=""img"">
                                </div>
                            </div>","-200","","0","images/D21.png","","","","[""Random"",""Non-random""]"
"","","","","","html-slider-response","154","33249297","0.0-146.0","o1lq2wy33n","NaN","<div style=""width:500px;"">
                                <p style=""font-size:50px; font-weight:bold;""
                                ></p>
                                <div style=""width:240px; margin: auto;"">
                                    <img src=""images/D34.png"" style= ""width:200px""alt=""img"">
                                </div>
                            </div>","-2","","0","images/D34.png","","","","[""Random"",""Non-random""]"
"","","","","","html-slider-response","155","33253066","0.0-147.0","o1lq2wy33n","NaN","<div style=""width:500px;"">
                                <p style=""font-size:50px; font-weight:bold;""
                                ></p>
                                <div style=""width:240px; margin: auto;"">
                                    <img src=""images/D81.png"" style= ""width:200px""alt=""img"">
                                </div>
                            </div>","-82","","0","images/D81.png","","","","[""Random"",""Non-random""]"
"","","","","","html-slider-response","156","33255083","0.0-148.0","o1lq2wy33n","NaN","<div style=""width:500px;"">
                                <p style=""font-size:50px; font-weight:bold;""
                                ></p>
                                <div style=""width:240px; margin: auto;"">
                                    <img src=""images/D76.png"" style= ""width:200px""alt=""img"">
                                </div>
                            </div>","200","","0","images/D76.png","","","","[""Random"",""Non-random""]"
"","","","","","html-slider-response","157","33258670","0.0-149.0","o1lq2wy33n","NaN","<div style=""width:500px;"">
                                <p style=""font-size:50px; font-weight:bold;""
                                ></p>
                                <div style=""width:240px; margin: auto;"">
                                    <img src=""images/D55.png"" style= ""width:200px""alt=""img"">
                                </div>
                            </div>","-20","","0","images/D55.png","","","","[""Random"",""Non-random""]"
"","","","","","html-slider-response","158","33262614","0.0-150.0","o1lq2wy33n","NaN","<div style=""width:500px;"">
                                <p style=""font-size:50px; font-weight:bold;""
                                ></p>
                                <div style=""width:240px; margin: auto;"">
                                    <img src=""images/D87.png"" style= ""width:200px""alt=""img"">
                                </div>
                            </div>","-46","","0","images/D87.png","","","","[""Random"",""Non-random""]"
"","","","","","html-slider-response","159","33264615","0.0-151.0","o1lq2wy33n","NaN","<div style=""width:500px;"">
                                <p style=""font-size:50px; font-weight:bold;""
                                ></p>
                                <div style=""width:240px; margin: auto;"">
                                    <img src=""images/D74.png"" style= ""width:200px""alt=""img"">
                                </div>
                            </div>","200","","0","images/D74.png","","","","[""Random"",""Non-random""]"
"","","","","","html-slider-response","160","33268613","0.0-152.0","o1lq2wy33n","NaN","<div style=""width:500px;"">
                                <p style=""font-size:50px; font-weight:bold;""
                                ></p>
                                <div style=""width:240px; margin: auto;"">
                                    <img src=""images/D14.png"" style= ""width:200px""alt=""img"">
                                </div>
                            </div>","-37","","0","images/D14.png","","","","[""Random"",""Non-random""]"
"","","","","","html-slider-response","161","33270591","0.0-153.0","o1lq2wy33n","NaN","<div style=""width:500px;"">
                                <p style=""font-size:50px; font-weight:bold;""
                                ></p>
                                <div style=""width:240px; margin: auto;"">
                                    <img src=""images/D56.png"" style= ""width:200px""alt=""img"">
                                </div>
                            </div>","200","","0","images/D56.png","","","","[""Random"",""Non-random""]"
"","","","","","html-slider-response","162","33272667","0.0-154.0","o1lq2wy33n","NaN","<div style=""width:500px;"">
                                <p style=""font-size:50px; font-weight:bold;""
                                ></p>
                                <div style=""width:240px; margin: auto;"">
                                    <img src=""images/D57.png"" style= ""width:200px""alt=""img"">
                                </div>
                            </div>","-200","","0","images/D57.png","","","","[""Random"",""Non-random""]"
"","","","","","html-slider-response","163","33274755","0.0-155.0","o1lq2wy33n","NaN","<div style=""width:500px;"">
                                <p style=""font-size:50px; font-weight:bold;""
                                ></p>
                                <div style=""width:240px; margin: auto;"">
                                    <img src=""images/D6.png"" style= ""width:200px""alt=""img"">
                                </div>
                            </div>","-38","","0","images/D6.png","","","","[""Random"",""Non-random""]"
"","","","","","html-slider-response","164","33276454","0.0-156.0","o1lq2wy33n","NaN","<div style=""width:500px;"">
                                <p style=""font-size:50px; font-weight:bold;""
                                ></p>
                                <div style=""width:240px; margin: auto;"">
                                    <img src=""images/D19.png"" style= ""width:200px""alt=""img"">
                                </div>
                            </div>","-35","","0","images/D19.png","","","","[""Random"",""Non-random""]"
"","","","","","html-slider-response","165","33278287","0.0-157.0","o1lq2wy33n","NaN","<div style=""width:500px;"">
                                <p style=""font-size:50px; font-weight:bold;""
                                ></p>
                                <div style=""width:240px; margin: auto;"">
                                    <img src=""images/D29.png"" style= ""width:200px""alt=""img"">
                                </div>
                            </div>","-78","","0","images/D29.png","","","","[""Random"",""Non-random""]"
"","","","","","html-slider-response","166","33280648","0.0-158.0","o1lq2wy33n","NaN","<div style=""width:500px;"">
                                <p style=""font-size:50px; font-weight:bold;""
                                ></p>
                                <div style=""width:240px; margin: auto;"">
                                    <img src=""images/D53.png"" style= ""width:200px""alt=""img"">
                                </div>
                            </div>","-94","","0","images/D53.png","","","","[""Random"",""Non-random""]"
"","","","","","html-slider-response","167","33282562","0.0-159.0","o1lq2wy33n","NaN","<div style=""width:500px;"">
                                <p style=""font-size:50px; font-weight:bold;""
                                ></p>
                                <div style=""width:240px; margin: auto;"">
                                    <img src=""images/D9.png"" style= ""width:200px""alt=""img"">
                                </div>
                            </div>","-200","","0","images/D9.png","","","","[""Random"",""Non-random""]"
"","","","","","html-slider-response","168","33285708","0.0-160.0","o1lq2wy33n","NaN","<div style=""width:500px;"">
                                <p style=""font-size:50px; font-weight:bold;""
                                ></p>
                                <div style=""width:240px; margin: auto;"">
                                    <img src=""images/D104.png"" style= ""width:200px""alt=""img"">
                                </div>
                            </div>","3","","0","images/D104.png","","","","[""Random"",""Non-random""]"
"","","","","","html-slider-response","169","33287287","0.0-161.0","o1lq2wy33n","NaN","<div style=""width:500px;"">
                                <p style=""font-size:50px; font-weight:bold;""
                                ></p>
                                <div style=""width:240px; margin: auto;"">
                                    <img src=""images/D51.png"" style= ""width:200px""alt=""img"">
                                </div>
                            </div>","175","","0","images/D51.png","","","","[""Random"",""Non-random""]"
"","","","","","html-slider-response","170","33289091","0.0-162.0","o1lq2wy33n","NaN","<div style=""width:500px;"">
                                <p style=""font-size:50px; font-weight:bold;""
                                ></p>
                                <div style=""width:240px; margin: auto;"">
                                    <img src=""images/D75.png"" style= ""width:200px""alt=""img"">
                                </div>
                            </div>","200","","0","images/D75.png","","","","[""Random"",""Non-random""]"
"","","","","","html-slider-response","171","33293313","0.0-163.0","o1lq2wy33n","NaN","<div style=""width:500px;"">
                                <p style=""font-size:50px; font-weight:bold;""
                                ></p>
                                <div style=""width:240px; margin: auto;"">
                                    <img src=""images/D68.png"" style= ""width:200px""alt=""img"">
                                </div>
                            </div>","29","","0","images/D68.png","","","","[""Random"",""Non-random""]"
"","","","","","html-slider-response","172","33295001","0.0-164.0","o1lq2wy33n","NaN","<div style=""width:500px;"">
                                <p style=""font-size:50px; font-weight:bold;""
                                ></p>
                                <div style=""width:240px; margin: auto;"">
                                    <img src=""images/D111.png"" style= ""width:200px""alt=""img"">
                                </div>
                            </div>","200","","0","images/D111.png","","","","[""Random"",""Non-random""]"
"","","","","","html-slider-response","173","33296545","0.0-165.0","o1lq2wy33n","NaN","<div style=""width:500px;"">
                                <p style=""font-size:50px; font-weight:bold;""
                                ></p>
                                <div style=""width:240px; margin: auto;"">
                                    <img src=""images/D20.png"" style= ""width:200px""alt=""img"">
                                </div>
                            </div>","200","","0","images/D20.png","","","","[""Random"",""Non-random""]"
"","","","","","html-slider-response","174","33298384","0.0-166.0","o1lq2wy33n","NaN","<div style=""width:500px;"">
                                <p style=""font-size:50px; font-weight:bold;""
                                ></p>
                                <div style=""width:240px; margin: auto;"">
                                    <img src=""images/D16.png"" style= ""width:200px""alt=""img"">
                                </div>
                            </div>","-25","","0","images/D16.png","","","","[""Random"",""Non-random""]"
"","","","","","html-slider-response","175","33300581","0.0-167.0","o1lq2wy33n","NaN","<div style=""width:500px;"">
                                <p style=""font-size:50px; font-weight:bold;""
                                ></p>
                                <div style=""width:240px; margin: auto;"">
                                    <img src=""images/D22.png"" style= ""width:200px""alt=""img"">
                                </div>
                            </div>","5","","0","images/D22.png","","","","[""Random"",""Non-random""]"
"","","","","","html-slider-response","176","33302336","0.0-168.0","o1lq2wy33n","NaN","<div style=""width:500px;"">
                                <p style=""font-size:50px; font-weight:bold;""
                                ></p>
                                <div style=""width:240px; margin: auto;"">
                                    <img src=""images/D52.png"" style= ""width:200px""alt=""img"">
                                </div>
                            </div>","5","","0","images/D52.png","","","","[""Random"",""Non-random""]"
"","","","","","html-slider-response","177","33303926","0.0-169.0","o1lq2wy33n","NaN","<div style=""width:500px;"">
                                <p style=""font-size:50px; font-weight:bold;""
                                ></p>
                                <div style=""width:240px; margin: auto;"">
                                    <img src=""images/D4.png"" style= ""width:200px""alt=""img"">
                                </div>
                            </div>","-200","","0","images/D4.png","","","","[""Random"",""Non-random""]"
"","","","","","html-slider-response","178","33305760","0.0-170.0","o1lq2wy33n","NaN","<div style=""width:500px;"">
                                <p style=""font-size:50px; font-weight:bold;""
                                ></p>
                                <div style=""width:240px; margin: auto;"">
                                    <img src=""images/D48.png"" style= ""width:200px""alt=""img"">
                                </div>
                            </div>","200","","0","images/D48.png","","","","[""Random"",""Non-random""]"
"","","","","","html-slider-response","179","33309338","0.0-171.0","o1lq2wy33n","NaN","<div style=""width:500px;"">
                                <p style=""font-size:50px; font-weight:bold;""
                                ></p>
                                <div style=""width:240px; margin: auto;"">
                                    <img src=""images/D66.png"" style= ""width:200px""alt=""img"">
                                </div>
                            </div>","200","","0","images/D66.png","","","","[""Random"",""Non-random""]"
"","","","","","html-slider-response","180","33311661","0.0-172.0","o1lq2wy33n","NaN","<div style=""width:500px;"">
                                <p style=""font-size:50px; font-weight:bold;""
                                ></p>
                                <div style=""width:240px; margin: auto;"">
                                    <img src=""images/D49.png"" style= ""width:200px""alt=""img"">
                                </div>
                            </div>","38","","0","images/D49.png","","","","[""Random"",""Non-random""]"
"","","","","","html-slider-response","181","33314135","0.0-173.0","o1lq2wy33n","NaN","<div style=""width:500px;"">
                                <p style=""font-size:50px; font-weight:bold;""
                                ></p>
                                <div style=""width:240px; margin: auto;"">
                                    <img src=""images/D83.png"" style= ""width:200px""alt=""img"">
                                </div>
                            </div>","103","","0","images/D83.png","","","","[""Random"",""Non-random""]"
"","","","","","html-slider-response","182","33316632","0.0-174.0","o1lq2wy33n","NaN","<div style=""width:500px;"">
                                <p style=""font-size:50px; font-weight:bold;""
                                ></p>
                                <div style=""width:240px; margin: auto;"">
                                    <img src=""images/D85.png"" style= ""width:200px""alt=""img"">
                                </div>
                            </div>","50","","0","images/D85.png","","","","[""Random"",""Non-random""]"
"","","","","","html-slider-response","183","33318189","0.0-175.0","o1lq2wy33n","NaN","<div style=""width:500px;"">
                                <p style=""font-size:50px; font-weight:bold;""
                                ></p>
                                <div style=""width:240px; margin: auto;"">
                                    <img src=""images/D95.png"" style= ""width:200px""alt=""img"">
                                </div>
                            </div>","200","","0","images/D95.png","","","","[""Random"",""Non-random""]"
"","","","","","html-slider-response","184","33320315","0.0-176.0","o1lq2wy33n","NaN","<div style=""width:500px;"">
                                <p style=""font-size:50px; font-weight:bold;""
                                ></p>
                                <div style=""width:240px; margin: auto;"">
                                    <img src=""images/D3.png"" style= ""width:200px""alt=""img"">
                                </div>
                            </div>","-45","","0","images/D3.png","","","","[""Random"",""Non-random""]"
"","","","","","html-slider-response","185","33322497","0.0-177.0","o1lq2wy33n","NaN","<div style=""width:500px;"">
                                <p style=""font-size:50px; font-weight:bold;""
                                ></p>
                                <div style=""width:240px; margin: auto;"">
                                    <img src=""images/D79.png"" style= ""width:200px""alt=""img"">
                                </div>
                            </div>","13","","0","images/D79.png","","","","[""Random"",""Non-random""]"
"","","","","","html-slider-response","186","33325017","0.0-178.0","o1lq2wy33n","NaN","<div style=""width:500px;"">
                                <p style=""font-size:50px; font-weight:bold;""
                                ></p>
                                <div style=""width:240px; margin: auto;"">
                                    <img src=""images/D36.png"" style= ""width:200px""alt=""img"">
                                </div>
                            </div>","33","","0","images/D36.png","","","","[""Random"",""Non-random""]"
