"success","timeout","failed_images","failed_audio","failed_video","trial_type","trial_index","time_elapsed","internal_node_id","subject_id","rt","stimulus","response","question_order","slider_start","image_path","practiceTrial","practiceTrialNum","correct","slider_labels"
"true","false","[]","[]","[]","preload","0","1260","0.0-0.0","oj8j7fd1cz","","","","","","","","","",""
"","","","","","html-button-response","1","2918","0.0-1.0","oj8j7fd1cz","1656","<div style='text-align:center; font-size:20px; line-height:25px; width: 1200px;'>
                Welcome to our experiment! <br>
                <br>At the bottom of this screen, you will see a button that says 'Begin Experiment.
                <br>Please only click that button when you are ready to complete the 25 minute experiment in one sitting. <br>
                <br> Once you click that button, it will not be possible to restart the experiment. <br><br>","0","","","","","","",""
"true","","","","","fullscreen","2","8107","0.0-2.0","oj8j7fd1cz","4185","","","","","","","","",""
"","","","","","survey-multi-select","3","32164","0.0-3.0","oj8j7fd1cz","24053","","{""Consent"":[""<strong>I consent</strong>""]}","[0]","","","","","",""
"","","","","","html-button-response","4","37771","0.0-4.0","oj8j7fd1cz","5604","Welcome! <p> This experiment involves two parts: demographic information, followed by the experimental task.<p> It will take about 25 minutes to complete both parts.","0","","","","","","",""
"","","","","","survey-text","5","45052","0.0-5.0","oj8j7fd1cz","7276","","{""Age"":""21"",""Gender"":""Femal"",""Race/ethnicity"":""White""}","","","","","","",""
"","","","","","html-slider-response","6","67496","0.0-6.0","oj8j7fd1cz","22441","
                <div style='text-align:center; height: auto; margin-left=-100px; margin-bottom: -20px; font-size:20px; line-height:5px; width: 1200px;'>
                    <br>During this experiment, you will see a series of textures, one at a time, like the ones below: 
                </div>
                    <br>
                    <br>
                    <img src=""anchoring_visual_textures.png"" alt=""img"" style=""max-width:1200px; margin-left: -10px;"">
                </div>
                <div style=""clear: both;""></div>
                </div>
                    <div style='text-align:center; margin-left=-100px; font-size:20px; line-height:20px; width: 1200px; margin-top: -50px;'>
                    
                    <br> For each texture, you will be asked to rate where you think it falls on each of the response scales with the following endpoints:
                    </div>
                            <div style=""text-align: center; width: 1400px; "">
                                <p style=""font-size:20px; line-height:5px; ""><b>Stripey</b> versus <b>Blobby</b></p>
                                <p style=""font-size:20px; line-height:5px; ""><b>Rectangular</b> versus <b>Rounded</b></p>
                                <p style=""font-size:20px;line-height:5px;""><b>Fine</b> versus <b>Coarse</b></p>
                                <p style=""font-size:20px;line-height:5px; ""><b>Smooth</b> versus <b>Rough</b></p>
                                <p style=""font-size:20px;line-height:5px; ""><b>Non-Random</b> versus <b>Random</b></p>
                                <p style=""font-size:20px;line-height:5px;""><b>Soft</b> versus <b>Hard</b></p>
                            </div>
                            <div style='text-align:center; font-size:20px; line-height:20px; width: 1400px;'>
                    
                    Each trial will include one texture and one response scale. You will be asked to make your rating by sliding the cursor along a slider response scale like the one below.
                    <br><br> Before beginning, please look at the textures and scales. For each scale, think about the texture you associate most with the left endpoint. When you see that texture for that response scale, please click near the left of the scale.
                    <br><br> Now, please think about the texture you associate most with the right endpoint of each scale. When you see that texture for that response scale, please click near the right of the scale. 
                    <br><br> If you think a texture is not strongly associated with either endpoint of the scale, please click near the midpoint of the scale. Please use the full range of the scale. 
                    <br><br> You will be asked to rate each texture for a given scale before moving on to the next scale.
                    <br><br> Please press the 'Continue' button for instructions on how to use the slider.                     <br><br>
                ","null","","0","visual_textures_anchoring.png","true","","",""
"","","","","","html-button-response","7","92182","0.0-7.0","oj8j7fd1cz","24684","<div style=""width:1200px; margin-top:-150px;""><p style=""text-align:center; font-size:24px;"">To move the slider, click and drag your cursor to the location of the scale where you would like to make your rating and then let go. <br><br> When you let go of the slider, your response will be recorded and the next trial will begin. <br><br><br>
                We are interested in your initial impressions of each texture and scale, so please go with your first intuition. <br><br>
                Before you begin the experiment, there will be four training trials for you to practice using the scale. <br><br><br><br></div>
                <div style=""width:1200px;""><p style=""text-align:center; font-size:20px;"">When you are ready to start the training trials, please click ""Continue"".</p></div>","0","","","","","","",""
"","","","","","html-slider-response","8","96239","0.0-8.0-0.0","oj8j7fd1cz","NaN","<div style=""width:500px;"">
                                <p style=""font-size:25px;"">Please move the slider all the way to the <br> right endpoint of the scale</p>

                                </div>
                            </div>","200","","0","","true","0","true",""
"","","","","","html-button-response","9","97715","0.0-8.0-1.0","oj8j7fd1cz","972","<p align='center'><b>Good job!</b> Click on 'Continue' to proceed.</p>","0","","","","","","",""
"","","","","","html-slider-response","10","99207","0.0-9.0-0.0","oj8j7fd1cz","NaN","<div style=""width:500px;"">
                                <p style=""font-size:25px;"">Please move the slider all the way to the <br> left endpoint of the scale</p>

                                </div>
                            </div>","-200","","0","","true","1","true",""
"","","","","","html-button-response","11","100303","0.0-9.0-1.0","oj8j7fd1cz","593","<p align='center'><b>Good job!</b> Click on 'Continue' to proceed.</p>","0","","","","","","",""
"","","","","","html-slider-response","12","104868","0.0-10.0-0.0","oj8j7fd1cz","NaN","<div style=""width:500px;"">
                                <p style=""font-size:25px;"">Please move the slider halfway between the center and right endpoint of the scale</p>

                                </div>
                            </div>","106","","0","","true","2","true",""
"","","","","","html-button-response","13","106151","0.0-10.0-1.0","oj8j7fd1cz","780","<p align='center'><b>Good job!</b> Click on 'Continue' to proceed.</p>","0","","","","","","",""
"","","","","","html-slider-response","14","108106","0.0-11.0-0.0","oj8j7fd1cz","NaN","<div style=""width:500px;"">
                                <p style=""font-size:25px;"">Please move the slider halfway between the center and left endpoint of the scale</p>

                                </div>
                            </div>","-106","","0","","true","3","true",""
"","","","","","html-button-response","15","109209","0.0-11.0-1.0","oj8j7fd1cz","600","<p align='center'><b>Good job!</b> Click on 'Continue' to proceed.</p>","0","","","","","","",""
"","","","","","html-button-response","16","123445","0.0-12.0","oj8j7fd1cz","14234","<div style=""width:800px; margin-top:-300px;""><p style=""text-align:center; font-size:22px; line-height:25px;""""> Great job! You've completed the practice trials.</div>
                     <div style=""width:800px; margin-top:-20px;""><p style=""text-align:center""><br><br> In the following trials, you will be asked to rate textures on each scale one-by-one. <br> You will be given opportunities to take breaks when you have completed each block of trials. There are six total blocks of trials. <br><br> Please click continue to begin the main task.<br><br><br> </div>","0","","","","","","",""
"","","","","","html-button-response","17","132136","0.0-13.0","oj8j7fd1cz","8688","In the following trials, you will be asked to rate textures on the scale <b>Smooth</b> versus <b>Rough</b>. Please click 'Continue' when you are ready proceed.","0","","","","","","",""
"","","","","","html-slider-response","18","134172","0.0-14.0","oj8j7fd1cz","NaN","<div style=""width:500px;"">
                                <p style=""font-size:50px; font-weight:bold;""
                                ></p>
                                <div style=""width:240px; margin: auto;"">
                                    <img src=""images/D16.png"" style= ""width:200px""alt=""img"">
                                </div>
                            </div>","68","","0","images/D16.png","","","","[""Smooth"",""Rough""]"
"","","","","","html-slider-response","19","136974","0.0-15.0","oj8j7fd1cz","NaN","<div style=""width:500px;"">
                                <p style=""font-size:50px; font-weight:bold;""
                                ></p>
                                <div style=""width:240px; margin: auto;"">
                                    <img src=""images/D102.png"" style= ""width:200px""alt=""img"">
                                </div>
                            </div>","-58","","0","images/D102.png","","","","[""Smooth"",""Rough""]"
"","","","","","html-slider-response","20","139375","0.0-16.0","oj8j7fd1cz","NaN","<div style=""width:500px;"">
                                <p style=""font-size:50px; font-weight:bold;""
                                ></p>
                                <div style=""width:240px; margin: auto;"">
                                    <img src=""images/D26.png"" style= ""width:200px""alt=""img"">
                                </div>
                            </div>","-40","","0","images/D26.png","","","","[""Smooth"",""Rough""]"
"","","","","","html-slider-response","21","146913","0.0-17.0","oj8j7fd1cz","NaN","<div style=""width:500px;"">
                                <p style=""font-size:50px; font-weight:bold;""
                                ></p>
                                <div style=""width:240px; margin: auto;"">
                                    <img src=""images/D49.png"" style= ""width:200px""alt=""img"">
                                </div>
                            </div>","-134","","0","images/D49.png","","","","[""Smooth"",""Rough""]"
"","","","","","html-slider-response","22","149265","0.0-18.0","oj8j7fd1cz","NaN","<div style=""width:500px;"">
                                <p style=""font-size:50px; font-weight:bold;""
                                ></p>
                                <div style=""width:240px; margin: auto;"">
                                    <img src=""images/D29.png"" style= ""width:200px""alt=""img"">
                                </div>
                            </div>","200","","0","images/D29.png","","","","[""Smooth"",""Rough""]"
"","","","","","html-slider-response","23","151548","0.0-19.0","oj8j7fd1cz","NaN","<div style=""width:500px;"">
                                <p style=""font-size:50px; font-weight:bold;""
                                ></p>
                                <div style=""width:240px; margin: auto;"">
                                    <img src=""images/D52.png"" style= ""width:200px""alt=""img"">
                                </div>
                            </div>","2","","0","images/D52.png","","","","[""Smooth"",""Rough""]"
"","","","","","html-slider-response","24","154829","0.0-20.0","oj8j7fd1cz","NaN","<div style=""width:500px;"">
                                <p style=""font-size:50px; font-weight:bold;""
                                ></p>
                                <div style=""width:240px; margin: auto;"">
                                    <img src=""images/D37.png"" style= ""width:200px""alt=""img"">
                                </div>
                            </div>","62","","0","images/D37.png","","","","[""Smooth"",""Rough""]"
"","","","","","html-slider-response","25","157005","0.0-21.0","oj8j7fd1cz","NaN","<div style=""width:500px;"">
                                <p style=""font-size:50px; font-weight:bold;""
                                ></p>
                                <div style=""width:240px; margin: auto;"">
                                    <img src=""images/D51.png"" style= ""width:200px""alt=""img"">
                                </div>
                            </div>","79","","0","images/D51.png","","","","[""Smooth"",""Rough""]"
"","","","","","html-slider-response","26","159123","0.0-22.0","oj8j7fd1cz","NaN","<div style=""width:500px;"">
                                <p style=""font-size:50px; font-weight:bold;""
                                ></p>
                                <div style=""width:240px; margin: auto;"">
                                    <img src=""images/D106.png"" style= ""width:200px""alt=""img"">
                                </div>
                            </div>","-57","","0","images/D106.png","","","","[""Smooth"",""Rough""]"
"","","","","","html-slider-response","27","160660","0.0-23.0","oj8j7fd1cz","NaN","<div style=""width:500px;"">
                                <p style=""font-size:50px; font-weight:bold;""
                                ></p>
                                <div style=""width:240px; margin: auto;"">
                                    <img src=""images/D81.png"" style= ""width:200px""alt=""img"">
                                </div>
                            </div>","-55","","0","images/D81.png","","","","[""Smooth"",""Rough""]"
"","","","","","html-slider-response","28","163961","0.0-24.0","oj8j7fd1cz","NaN","<div style=""width:500px;"">
                                <p style=""font-size:50px; font-weight:bold;""
                                ></p>
                                <div style=""width:240px; margin: auto;"">
                                    <img src=""images/D14.png"" style= ""width:200px""alt=""img"">
                                </div>
                            </div>","-68","","0","images/D14.png","","","","[""Smooth"",""Rough""]"
"","","","","","html-slider-response","29","165472","0.0-25.0","oj8j7fd1cz","NaN","<div style=""width:500px;"">
                                <p style=""font-size:50px; font-weight:bold;""
                                ></p>
                                <div style=""width:240px; margin: auto;"">
                                    <img src=""images/D46.png"" style= ""width:200px""alt=""img"">
                                </div>
                            </div>","-91","","0","images/D46.png","","","","[""Smooth"",""Rough""]"
"","","","","","html-slider-response","30","167638","0.0-26.0","oj8j7fd1cz","NaN","<div style=""width:500px;"">
                                <p style=""font-size:50px; font-weight:bold;""
                                ></p>
                                <div style=""width:240px; margin: auto;"">
                                    <img src=""images/D34.png"" style= ""width:200px""alt=""img"">
                                </div>
                            </div>","-76","","0","images/D34.png","","","","[""Smooth"",""Rough""]"
"","","","","","html-slider-response","31","169144","0.0-27.0","oj8j7fd1cz","NaN","<div style=""width:500px;"">
                                <p style=""font-size:50px; font-weight:bold;""
                                ></p>
                                <div style=""width:240px; margin: auto;"">
                                    <img src=""images/D65.png"" style= ""width:200px""alt=""img"">
                                </div>
                            </div>","190","","0","images/D65.png","","","","[""Smooth"",""Rough""]"
"","","","","","html-slider-response","32","170963","0.0-28.0","oj8j7fd1cz","NaN","<div style=""width:500px;"">
                                <p style=""font-size:50px; font-weight:bold;""
                                ></p>
                                <div style=""width:240px; margin: auto;"">
                                    <img src=""images/D19.png"" style= ""width:200px""alt=""img"">
                                </div>
                            </div>","75","","0","images/D19.png","","","","[""Smooth"",""Rough""]"
"","","","","","html-slider-response","33","172362","0.0-29.0","oj8j7fd1cz","NaN","<div style=""width:500px;"">
                                <p style=""font-size:50px; font-weight:bold;""
                                ></p>
                                <div style=""width:240px; margin: auto;"">
                                    <img src=""images/D84.png"" style= ""width:200px""alt=""img"">
                                </div>
                            </div>","120","","0","images/D84.png","","","","[""Smooth"",""Rough""]"
"","","","","","html-slider-response","34","173906","0.0-30.0","oj8j7fd1cz","NaN","<div style=""width:500px;"">
                                <p style=""font-size:50px; font-weight:bold;""
                                ></p>
                                <div style=""width:240px; margin: auto;"">
                                    <img src=""images/D77.png"" style= ""width:200px""alt=""img"">
                                </div>
                            </div>","-93","","0","images/D77.png","","","","[""Smooth"",""Rough""]"
"","","","","","html-slider-response","35","175927","0.0-31.0","oj8j7fd1cz","NaN","<div style=""width:500px;"">
                                <p style=""font-size:50px; font-weight:bold;""
                                ></p>
                                <div style=""width:240px; margin: auto;"">
                                    <img src=""images/D35.png"" style= ""width:200px""alt=""img"">
                                </div>
                            </div>","195","","0","images/D35.png","","","","[""Smooth"",""Rough""]"
"","","","","","html-slider-response","36","177632","0.0-32.0","oj8j7fd1cz","NaN","<div style=""width:500px;"">
                                <p style=""font-size:50px; font-weight:bold;""
                                ></p>
                                <div style=""width:240px; margin: auto;"">
                                    <img src=""images/D104.png"" style= ""width:200px""alt=""img"">
                                </div>
                            </div>","90","","0","images/D104.png","","","","[""Smooth"",""Rough""]"
"","","","","","html-slider-response","37","179144","0.0-33.0","oj8j7fd1cz","NaN","<div style=""width:500px;"">
                                <p style=""font-size:50px; font-weight:bold;""
                                ></p>
                                <div style=""width:240px; margin: auto;"">
                                    <img src=""images/D53.png"" style= ""width:200px""alt=""img"">
                                </div>
                            </div>","-160","","0","images/D53.png","","","","[""Smooth"",""Rough""]"
"","","","","","html-slider-response","38","180682","0.0-34.0","oj8j7fd1cz","NaN","<div style=""width:500px;"">
                                <p style=""font-size:50px; font-weight:bold;""
                                ></p>
                                <div style=""width:240px; margin: auto;"">
                                    <img src=""images/D85.png"" style= ""width:200px""alt=""img"">
                                </div>
                            </div>","-71","","0","images/D85.png","","","","[""Smooth"",""Rough""]"
"","","","","","html-slider-response","39","182696","0.0-35.0","oj8j7fd1cz","NaN","<div style=""width:500px;"">
                                <p style=""font-size:50px; font-weight:bold;""
                                ></p>
                                <div style=""width:240px; margin: auto;"">
                                    <img src=""images/D95.png"" style= ""width:200px""alt=""img"">
                                </div>
                            </div>","106","","0","images/D95.png","","","","[""Smooth"",""Rough""]"
"","","","","","html-slider-response","40","184072","0.0-36.0","oj8j7fd1cz","NaN","<div style=""width:500px;"">
                                <p style=""font-size:50px; font-weight:bold;""
                                ></p>
                                <div style=""width:240px; margin: auto;"">
                                    <img src=""images/D94.png"" style= ""width:200px""alt=""img"">
                                </div>
                            </div>","65","","0","images/D94.png","","","","[""Smooth"",""Rough""]"
"","","","","","html-slider-response","41","186643","0.0-37.0","oj8j7fd1cz","NaN","<div style=""width:500px;"">
                                <p style=""font-size:50px; font-weight:bold;""
                                ></p>
                                <div style=""width:240px; margin: auto;"">
                                    <img src=""images/D68.png"" style= ""width:200px""alt=""img"">
                                </div>
                            </div>","81","","0","images/D68.png","","","","[""Smooth"",""Rough""]"
"","","","","","html-slider-response","42","188009","0.0-38.0","oj8j7fd1cz","NaN","<div style=""width:500px;"">
                                <p style=""font-size:50px; font-weight:bold;""
                                ></p>
                                <div style=""width:240px; margin: auto;"">
                                    <img src=""images/D87.png"" style= ""width:200px""alt=""img"">
                                </div>
                            </div>","98","","0","images/D87.png","","","","[""Smooth"",""Rough""]"
"","","","","","html-slider-response","43","189398","0.0-39.0","oj8j7fd1cz","NaN","<div style=""width:500px;"">
                                <p style=""font-size:50px; font-weight:bold;""
                                ></p>
                                <div style=""width:240px; margin: auto;"">
                                    <img src=""images/D66.png"" style= ""width:200px""alt=""img"">
                                </div>
                            </div>","90","","0","images/D66.png","","","","[""Smooth"",""Rough""]"
"","","","","","html-slider-response","44","191712","0.0-40.0","oj8j7fd1cz","NaN","<div style=""width:500px;"">
                                <p style=""font-size:50px; font-weight:bold;""
                                ></p>
                                <div style=""width:240px; margin: auto;"">
                                    <img src=""images/D9.png"" style= ""width:200px""alt=""img"">
                                </div>
                            </div>","14","","0","images/D9.png","","","","[""Smooth"",""Rough""]"
"","","","","","html-slider-response","45","194059","0.0-41.0","oj8j7fd1cz","NaN","<div style=""width:500px;"">
                                <p style=""font-size:50px; font-weight:bold;""
                                ></p>
                                <div style=""width:240px; margin: auto;"">
                                    <img src=""images/D79.png"" style= ""width:200px""alt=""img"">
                                </div>
                            </div>","-97","","0","images/D79.png","","","","[""Smooth"",""Rough""]"
"","","","","","html-slider-response","46","195513","0.0-42.0","oj8j7fd1cz","NaN","<div style=""width:500px;"">
                                <p style=""font-size:50px; font-weight:bold;""
                                ></p>
                                <div style=""width:240px; margin: auto;"">
                                    <img src=""images/D36.png"" style= ""width:200px""alt=""img"">
                                </div>
                            </div>","-70","","0","images/D36.png","","","","[""Smooth"",""Rough""]"
"","","","","","html-slider-response","47","197923","0.0-43.0","oj8j7fd1cz","NaN","<div style=""width:500px;"">
                                <p style=""font-size:50px; font-weight:bold;""
                                ></p>
                                <div style=""width:240px; margin: auto;"">
                                    <img src=""images/D32.png"" style= ""width:200px""alt=""img"">
                                </div>
                            </div>","200","","0","images/D32.png","","","","[""Smooth"",""Rough""]"
"","","","","","html-slider-response","48","199579","0.0-44.0","oj8j7fd1cz","NaN","<div style=""width:500px;"">
                                <p style=""font-size:50px; font-weight:bold;""
                                ></p>
                                <div style=""width:240px; margin: auto;"">
                                    <img src=""images/D1.png"" style= ""width:200px""alt=""img"">
                                </div>
                            </div>","62","","0","images/D1.png","","","","[""Smooth"",""Rough""]"
"","","","","","html-slider-response","49","201066","0.0-45.0","oj8j7fd1cz","NaN","<div style=""width:500px;"">
                                <p style=""font-size:50px; font-weight:bold;""
                                ></p>
                                <div style=""width:240px; margin: auto;"">
                                    <img src=""images/D92.png"" style= ""width:200px""alt=""img"">
                                </div>
                            </div>","95","","0","images/D92.png","","","","[""Smooth"",""Rough""]"
"","","","","","html-slider-response","50","203898","0.0-46.0","oj8j7fd1cz","NaN","<div style=""width:500px;"">
                                <p style=""font-size:50px; font-weight:bold;""
                                ></p>
                                <div style=""width:240px; margin: auto;"">
                                    <img src=""images/D20.png"" style= ""width:200px""alt=""img"">
                                </div>
                            </div>","17","","0","images/D20.png","","","","[""Smooth"",""Rough""]"
"","","","","","html-slider-response","51","205742","0.0-47.0","oj8j7fd1cz","NaN","<div style=""width:500px;"">
                                <p style=""font-size:50px; font-weight:bold;""
                                ></p>
                                <div style=""width:240px; margin: auto;"">
                                    <img src=""images/D96.png"" style= ""width:200px""alt=""img"">
                                </div>
                            </div>","34","","0","images/D96.png","","","","[""Smooth"",""Rough""]"
"","","","","","html-slider-response","52","208420","0.0-48.0","oj8j7fd1cz","NaN","<div style=""width:500px;"">
                                <p style=""font-size:50px; font-weight:bold;""
                                ></p>
                                <div style=""width:240px; margin: auto;"">
                                    <img src=""images/D64.png"" style= ""width:200px""alt=""img"">
                                </div>
                            </div>","70","","0","images/D64.png","","","","[""Smooth"",""Rough""]"
"","","","","","html-slider-response","53","209930","0.0-49.0","oj8j7fd1cz","NaN","<div style=""width:500px;"">
                                <p style=""font-size:50px; font-weight:bold;""
                                ></p>
                                <div style=""width:240px; margin: auto;"">
                                    <img src=""images/D76.png"" style= ""width:200px""alt=""img"">
                                </div>
                            </div>","3","","0","images/D76.png","","","","[""Smooth"",""Rough""]"
"","","","","","html-slider-response","54","213415","0.0-50.0","oj8j7fd1cz","NaN","<div style=""width:500px;"">
                                <p style=""font-size:50px; font-weight:bold;""
                                ></p>
                                <div style=""width:240px; margin: auto;"">
                                    <img src=""images/D80.png"" style= ""width:200px""alt=""img"">
                                </div>
                            </div>","67","","0","images/D80.png","","","","[""Smooth"",""Rough""]"
"","","","","","html-slider-response","55","214995","0.0-51.0","oj8j7fd1cz","NaN","<div style=""width:500px;"">
                                <p style=""font-size:50px; font-weight:bold;""
                                ></p>
                                <div style=""width:240px; margin: auto;"">
                                    <img src=""images/D57.png"" style= ""width:200px""alt=""img"">
                                </div>
                            </div>","89","","0","images/D57.png","","","","[""Smooth"",""Rough""]"
"","","","","","html-slider-response","56","216611","0.0-52.0","oj8j7fd1cz","NaN","<div style=""width:500px;"">
                                <p style=""font-size:50px; font-weight:bold;""
                                ></p>
                                <div style=""width:240px; margin: auto;"">
                                    <img src=""images/D3.png"" style= ""width:200px""alt=""img"">
                                </div>
                            </div>","-45","","0","images/D3.png","","","","[""Smooth"",""Rough""]"
"","","","","","html-slider-response","57","217995","0.0-53.0","oj8j7fd1cz","NaN","<div style=""width:500px;"">
                                <p style=""font-size:50px; font-weight:bold;""
                                ></p>
                                <div style=""width:240px; margin: auto;"">
                                    <img src=""images/D22.png"" style= ""width:200px""alt=""img"">
                                </div>
                            </div>","-66","","0","images/D22.png","","","","[""Smooth"",""Rough""]"
"","","","","","html-slider-response","58","219715","0.0-54.0","oj8j7fd1cz","NaN","<div style=""width:500px;"">
                                <p style=""font-size:50px; font-weight:bold;""
                                ></p>
                                <div style=""width:240px; margin: auto;"">
                                    <img src=""images/D103.png"" style= ""width:200px""alt=""img"">
                                </div>
                            </div>","-54","","0","images/D103.png","","","","[""Smooth"",""Rough""]"
"","","","","","html-slider-response","59","221420","0.0-55.0","oj8j7fd1cz","NaN","<div style=""width:500px;"">
                                <p style=""font-size:50px; font-weight:bold;""
                                ></p>
                                <div style=""width:240px; margin: auto;"">
                                    <img src=""images/D8.png"" style= ""width:200px""alt=""img"">
                                </div>
                            </div>","-44","","0","images/D8.png","","","","[""Smooth"",""Rough""]"
"","","","","","html-slider-response","60","223014","0.0-56.0","oj8j7fd1cz","NaN","<div style=""width:500px;"">
                                <p style=""font-size:50px; font-weight:bold;""
                                ></p>
                                <div style=""width:240px; margin: auto;"">
                                    <img src=""images/D25.png"" style= ""width:200px""alt=""img"">
                                </div>
                            </div>","61","","0","images/D25.png","","","","[""Smooth"",""Rough""]"
"","","","","","html-slider-response","61","225148","0.0-57.0","oj8j7fd1cz","NaN","<div style=""width:500px;"">
                                <p style=""font-size:50px; font-weight:bold;""
                                ></p>
                                <div style=""width:240px; margin: auto;"">
                                    <img src=""images/D21.png"" style= ""width:200px""alt=""img"">
                                </div>
                            </div>","-118","","0","images/D21.png","","","","[""Smooth"",""Rough""]"
"","","","","","html-slider-response","62","227172","0.0-58.0","oj8j7fd1cz","NaN","<div style=""width:500px;"">
                                <p style=""font-size:50px; font-weight:bold;""
                                ></p>
                                <div style=""width:240px; margin: auto;"">
                                    <img src=""images/D74.png"" style= ""width:200px""alt=""img"">
                                </div>
                            </div>","162","","0","images/D74.png","","","","[""Smooth"",""Rough""]"
"","","","","","html-slider-response","63","229014","0.0-59.0","oj8j7fd1cz","NaN","<div style=""width:500px;"">
                                <p style=""font-size:50px; font-weight:bold;""
                                ></p>
                                <div style=""width:240px; margin: auto;"">
                                    <img src=""images/D75.png"" style= ""width:200px""alt=""img"">
                                </div>
                            </div>","200","","0","images/D75.png","","","","[""Smooth"",""Rough""]"
"","","","","","html-slider-response","64","231644","0.0-60.0","oj8j7fd1cz","NaN","<div style=""width:500px;"">
                                <p style=""font-size:50px; font-weight:bold;""
                                ></p>
                                <div style=""width:240px; margin: auto;"">
                                    <img src=""images/D82.png"" style= ""width:200px""alt=""img"">
                                </div>
                            </div>","98","","0","images/D82.png","","","","[""Smooth"",""Rough""]"
"","","","","","html-slider-response","65","233076","0.0-61.0","oj8j7fd1cz","NaN","<div style=""width:500px;"">
                                <p style=""font-size:50px; font-weight:bold;""
                                ></p>
                                <div style=""width:240px; margin: auto;"">
                                    <img src=""images/D83.png"" style= ""width:200px""alt=""img"">
                                </div>
                            </div>","34","","0","images/D83.png","","","","[""Smooth"",""Rough""]"
"","","","","","html-slider-response","66","236016","0.0-62.0","oj8j7fd1cz","NaN","<div style=""width:500px;"">
                                <p style=""font-size:50px; font-weight:bold;""
                                ></p>
                                <div style=""width:240px; margin: auto;"">
                                    <img src=""images/D11.png"" style= ""width:200px""alt=""img"">
                                </div>
                            </div>","59","","0","images/D11.png","","","","[""Smooth"",""Rough""]"
"","","","","","html-slider-response","67","238689","0.0-63.0","oj8j7fd1cz","NaN","<div style=""width:500px;"">
                                <p style=""font-size:50px; font-weight:bold;""
                                ></p>
                                <div style=""width:240px; margin: auto;"">
                                    <img src=""images/D4.png"" style= ""width:200px""alt=""img"">
                                </div>
                            </div>","102","","0","images/D4.png","","","","[""Smooth"",""Rough""]"
"","","","","","html-slider-response","68","241484","0.0-64.0","oj8j7fd1cz","NaN","<div style=""width:500px;"">
                                <p style=""font-size:50px; font-weight:bold;""
                                ></p>
                                <div style=""width:240px; margin: auto;"">
                                    <img src=""images/D47.png"" style= ""width:200px""alt=""img"">
                                </div>
                            </div>","-59","","0","images/D47.png","","","","[""Smooth"",""Rough""]"
"","","","","","html-slider-response","69","243395","0.0-65.0","oj8j7fd1cz","NaN","<div style=""width:500px;"">
                                <p style=""font-size:50px; font-weight:bold;""
                                ></p>
                                <div style=""width:240px; margin: auto;"">
                                    <img src=""images/D111.png"" style= ""width:200px""alt=""img"">
                                </div>
                            </div>","46","","0","images/D111.png","","","","[""Smooth"",""Rough""]"
"","","","","","html-slider-response","70","276232","0.0-66.0","oj8j7fd1cz","NaN","<div style=""width:500px;"">
                                <p style=""font-size:50px; font-weight:bold;""
                                ></p>
                                <div style=""width:240px; margin: auto;"">
                                    <img src=""images/D55.png"" style= ""width:200px""alt=""img"">
                                </div>
                            </div>","58","","0","images/D55.png","","","","[""Smooth"",""Rough""]"
"","","","","","html-slider-response","71","277590","0.0-67.0","oj8j7fd1cz","NaN","<div style=""width:500px;"">
                                <p style=""font-size:50px; font-weight:bold;""
                                ></p>
                                <div style=""width:240px; margin: auto;"">
                                    <img src=""images/D78.png"" style= ""width:200px""alt=""img"">
                                </div>
                            </div>","94","","0","images/D78.png","","","","[""Smooth"",""Rough""]"
"","","","","","html-slider-response","72","279198","0.0-68.0","oj8j7fd1cz","NaN","<div style=""width:500px;"">
                                <p style=""font-size:50px; font-weight:bold;""
                                ></p>
                                <div style=""width:240px; margin: auto;"">
                                    <img src=""images/D6.png"" style= ""width:200px""alt=""img"">
                                </div>
                            </div>","-98","","0","images/D6.png","","","","[""Smooth"",""Rough""]"
"","","","","","html-slider-response","73","308729","0.0-69.0","oj8j7fd1cz","NaN","<div style=""width:500px;"">
                                <p style=""font-size:50px; font-weight:bold;""
                                ></p>
                                <div style=""width:240px; margin: auto;"">
                                    <img src=""images/D48.png"" style= ""width:200px""alt=""img"">
                                </div>
                            </div>","-194","","0","images/D48.png","","","","[""Smooth"",""Rough""]"
"","","","","","html-slider-response","74","310451","0.0-70.0","oj8j7fd1cz","NaN","<div style=""width:500px;"">
                                <p style=""font-size:50px; font-weight:bold;""
                                ></p>
                                <div style=""width:240px; margin: auto;"">
                                    <img src=""images/D105.png"" style= ""width:200px""alt=""img"">
                                </div>
                            </div>","-114","","0","images/D105.png","","","","[""Smooth"",""Rough""]"
"","","","","","html-slider-response","75","316242","0.0-71.0","oj8j7fd1cz","NaN","<div style=""width:500px;"">
                                <p style=""font-size:50px; font-weight:bold;""
                                ></p>
                                <div style=""width:240px; margin: auto;"">
                                    <img src=""images/D56.png"" style= ""width:200px""alt=""img"">
                                </div>
                            </div>","162","","0","images/D56.png","","","","[""Smooth"",""Rough""]"
"","","","","","html-slider-response","76","317744","0.0-72.0","oj8j7fd1cz","NaN","<div style=""width:500px;"">
                                <p style=""font-size:50px; font-weight:bold;""
                                ></p>
                                <div style=""width:240px; margin: auto;"">
                                    <img src=""images/D18.png"" style= ""width:200px""alt=""img"">
                                </div>
                            </div>","142","","0","images/D18.png","","","","[""Smooth"",""Rough""]"
"","","","","","html-slider-response","77","319630","0.0-73.0","oj8j7fd1cz","NaN","<div style=""width:500px;"">
                                <p style=""font-size:50px; font-weight:bold;""
                                ></p>
                                <div style=""width:240px; margin: auto;"">
                                    <img src=""images/D24.png"" style= ""width:200px""alt=""img"">
                                </div>
                            </div>","52","","0","images/D24.png","","","","[""Smooth"",""Rough""]"
"","","","","","html-slider-response","78","321829","0.0-74.0","oj8j7fd1cz","NaN","<div style=""width:500px;"">
                                <p style=""font-size:50px; font-weight:bold;""
                                ></p>
                                <div style=""width:240px; margin: auto;"">
                                    <img src=""images/D101.png"" style= ""width:200px""alt=""img"">
                                </div>
                            </div>","-97","","0","images/D101.png","","","","[""Smooth"",""Rough""]"
"","","","","","html-slider-response","79","323479","0.0-75.0","oj8j7fd1cz","NaN","<div style=""width:500px;"">
                                <p style=""font-size:50px; font-weight:bold;""
                                ></p>
                                <div style=""width:240px; margin: auto;"">
                                    <img src=""images/D17.png"" style= ""width:200px""alt=""img"">
                                </div>
                            </div>","-110","","0","images/D17.png","","","","[""Smooth"",""Rough""]"
"","","","","","html-button-response","80","325668","0.0-76.0","oj8j7fd1cz","1686","You have completed the first block of trials out of six. Please click 'Continue' when you are ready proceed.","0","","","","","","",""
"","","","","","html-button-response","81","331183","0.0-77.0","oj8j7fd1cz","5511","In the following trials, you will be asked to rate textures on the scale <b>Fine</b> versus <b>Coarse</b>. Please click 'Continue' when you are ready proceed.","0","","","","","","",""
"","","","","","html-slider-response","82","334809","0.0-78.0","oj8j7fd1cz","NaN","<div style=""width:500px;"">
                                <p style=""font-size:50px; font-weight:bold;""
                                ></p>
                                <div style=""width:240px; margin: auto;"">
                                    <img src=""images/D78.png"" style= ""width:200px""alt=""img"">
                                </div>
                            </div>","-109","","0","images/D78.png","","","","[""Fine"",""Coarse""]"
"","","","","","html-slider-response","83","339765","0.0-79.0","oj8j7fd1cz","NaN","<div style=""width:500px;"">
                                <p style=""font-size:50px; font-weight:bold;""
                                ></p>
                                <div style=""width:240px; margin: auto;"">
                                    <img src=""images/D24.png"" style= ""width:200px""alt=""img"">
                                </div>
                            </div>","51","","0","images/D24.png","","","","[""Fine"",""Coarse""]"
"","","","","","html-slider-response","84","341099","0.0-80.0","oj8j7fd1cz","NaN","<div style=""width:500px;"">
                                <p style=""font-size:50px; font-weight:bold;""
                                ></p>
                                <div style=""width:240px; margin: auto;"">
                                    <img src=""images/D80.png"" style= ""width:200px""alt=""img"">
                                </div>
                            </div>","115","","0","images/D80.png","","","","[""Fine"",""Coarse""]"
"","","","","","html-slider-response","85","342405","0.0-81.0","oj8j7fd1cz","NaN","<div style=""width:500px;"">
                                <p style=""font-size:50px; font-weight:bold;""
                                ></p>
                                <div style=""width:240px; margin: auto;"">
                                    <img src=""images/D103.png"" style= ""width:200px""alt=""img"">
                                </div>
                            </div>","88","","0","images/D103.png","","","","[""Fine"",""Coarse""]"
"","","","","","html-slider-response","86","343778","0.0-82.0","oj8j7fd1cz","NaN","<div style=""width:500px;"">
                                <p style=""font-size:50px; font-weight:bold;""
                                ></p>
                                <div style=""width:240px; margin: auto;"">
                                    <img src=""images/D105.png"" style= ""width:200px""alt=""img"">
                                </div>
                            </div>","-53","","0","images/D105.png","","","","[""Fine"",""Coarse""]"
"","","","","","html-slider-response","87","346042","0.0-83.0","oj8j7fd1cz","NaN","<div style=""width:500px;"">
                                <p style=""font-size:50px; font-weight:bold;""
                                ></p>
                                <div style=""width:240px; margin: auto;"">
                                    <img src=""images/D111.png"" style= ""width:200px""alt=""img"">
                                </div>
                            </div>","66","","0","images/D111.png","","","","[""Fine"",""Coarse""]"
"","","","","","html-slider-response","88","347350","0.0-84.0","oj8j7fd1cz","NaN","<div style=""width:500px;"">
                                <p style=""font-size:50px; font-weight:bold;""
                                ></p>
                                <div style=""width:240px; margin: auto;"">
                                    <img src=""images/D94.png"" style= ""width:200px""alt=""img"">
                                </div>
                            </div>","91","","0","images/D94.png","","","","[""Fine"",""Coarse""]"
"","","","","","html-slider-response","89","348825","0.0-85.0","oj8j7fd1cz","NaN","<div style=""width:500px;"">
                                <p style=""font-size:50px; font-weight:bold;""
                                ></p>
                                <div style=""width:240px; margin: auto;"">
                                    <img src=""images/D95.png"" style= ""width:200px""alt=""img"">
                                </div>
                            </div>","133","","0","images/D95.png","","","","[""Fine"",""Coarse""]"
"","","","","","html-slider-response","90","352649","0.0-86.0","oj8j7fd1cz","NaN","<div style=""width:500px;"">
                                <p style=""font-size:50px; font-weight:bold;""
                                ></p>
                                <div style=""width:240px; margin: auto;"">
                                    <img src=""images/D49.png"" style= ""width:200px""alt=""img"">
                                </div>
                            </div>","-131","","0","images/D49.png","","","","[""Fine"",""Coarse""]"
"","","","","","html-slider-response","91","354484","0.0-87.0","oj8j7fd1cz","NaN","<div style=""width:500px;"">
                                <p style=""font-size:50px; font-weight:bold;""
                                ></p>
                                <div style=""width:240px; margin: auto;"">
                                    <img src=""images/D3.png"" style= ""width:200px""alt=""img"">
                                </div>
                            </div>","-84","","0","images/D3.png","","","","[""Fine"",""Coarse""]"
"","","","","","html-slider-response","92","355545","0.0-88.0","oj8j7fd1cz","NaN","<div style=""width:500px;"">
                                <p style=""font-size:50px; font-weight:bold;""
                                ></p>
                                <div style=""width:240px; margin: auto;"">
                                    <img src=""images/D22.png"" style= ""width:200px""alt=""img"">
                                </div>
                            </div>","-137","","0","images/D22.png","","","","[""Fine"",""Coarse""]"
"","","","","","html-slider-response","93","356906","0.0-89.0","oj8j7fd1cz","NaN","<div style=""width:500px;"">
                                <p style=""font-size:50px; font-weight:bold;""
                                ></p>
                                <div style=""width:240px; margin: auto;"">
                                    <img src=""images/D74.png"" style= ""width:200px""alt=""img"">
                                </div>
                            </div>","81","","0","images/D74.png","","","","[""Fine"",""Coarse""]"
"","","","","","html-slider-response","94","357989","0.0-90.0","oj8j7fd1cz","NaN","<div style=""width:500px;"">
                                <p style=""font-size:50px; font-weight:bold;""
                                ></p>
                                <div style=""width:240px; margin: auto;"">
                                    <img src=""images/D96.png"" style= ""width:200px""alt=""img"">
                                </div>
                            </div>","-89","","0","images/D96.png","","","","[""Fine"",""Coarse""]"
"","","","","","html-slider-response","95","359071","0.0-91.0","oj8j7fd1cz","NaN","<div style=""width:500px;"">
                                <p style=""font-size:50px; font-weight:bold;""
                                ></p>
                                <div style=""width:240px; margin: auto;"">
                                    <img src=""images/D8.png"" style= ""width:200px""alt=""img"">
                                </div>
                            </div>","131","","0","images/D8.png","","","","[""Fine"",""Coarse""]"
"","","","","","html-slider-response","96","360462","0.0-92.0","oj8j7fd1cz","NaN","<div style=""width:500px;"">
                                <p style=""font-size:50px; font-weight:bold;""
                                ></p>
                                <div style=""width:240px; margin: auto;"">
                                    <img src=""images/D21.png"" style= ""width:200px""alt=""img"">
                                </div>
                            </div>","-90","","0","images/D21.png","","","","[""Fine"",""Coarse""]"
"","","","","","html-slider-response","97","363705","0.0-93.0","oj8j7fd1cz","NaN","<div style=""width:500px;"">
                                <p style=""font-size:50px; font-weight:bold;""
                                ></p>
                                <div style=""width:240px; margin: auto;"">
                                    <img src=""images/D85.png"" style= ""width:200px""alt=""img"">
                                </div>
                            </div>","-137","","0","images/D85.png","","","","[""Fine"",""Coarse""]"
"","","","","","html-slider-response","98","365231","0.0-94.0","oj8j7fd1cz","NaN","<div style=""width:500px;"">
                                <p style=""font-size:50px; font-weight:bold;""
                                ></p>
                                <div style=""width:240px; margin: auto;"">
                                    <img src=""images/D106.png"" style= ""width:200px""alt=""img"">
                                </div>
                            </div>","-70","","0","images/D106.png","","","","[""Fine"",""Coarse""]"
"","","","","","html-slider-response","99","366624","0.0-95.0","oj8j7fd1cz","NaN","<div style=""width:500px;"">
                                <p style=""font-size:50px; font-weight:bold;""
                                ></p>
                                <div style=""width:240px; margin: auto;"">
                                    <img src=""images/D79.png"" style= ""width:200px""alt=""img"">
                                </div>
                            </div>","-61","","0","images/D79.png","","","","[""Fine"",""Coarse""]"
"","","","","","html-slider-response","100","368412","0.0-96.0","oj8j7fd1cz","NaN","<div style=""width:500px;"">
                                <p style=""font-size:50px; font-weight:bold;""
                                ></p>
                                <div style=""width:240px; margin: auto;"">
                                    <img src=""images/D92.png"" style= ""width:200px""alt=""img"">
                                </div>
                            </div>","156","","0","images/D92.png","","","","[""Fine"",""Coarse""]"
"","","","","","html-slider-response","101","369534","0.0-97.0","oj8j7fd1cz","NaN","<div style=""width:500px;"">
                                <p style=""font-size:50px; font-weight:bold;""
                                ></p>
                                <div style=""width:240px; margin: auto;"">
                                    <img src=""images/D84.png"" style= ""width:200px""alt=""img"">
                                </div>
                            </div>","107","","0","images/D84.png","","","","[""Fine"",""Coarse""]"
"","","","","","html-slider-response","102","370708","0.0-98.0","oj8j7fd1cz","NaN","<div style=""width:500px;"">
                                <p style=""font-size:50px; font-weight:bold;""
                                ></p>
                                <div style=""width:240px; margin: auto;"">
                                    <img src=""images/D66.png"" style= ""width:200px""alt=""img"">
                                </div>
                            </div>","127","","0","images/D66.png","","","","[""Fine"",""Coarse""]"
"","","","","","html-slider-response","103","372413","0.0-99.0","oj8j7fd1cz","NaN","<div style=""width:500px;"">
                                <p style=""font-size:50px; font-weight:bold;""
                                ></p>
                                <div style=""width:240px; margin: auto;"">
                                    <img src=""images/D51.png"" style= ""width:200px""alt=""img"">
                                </div>
                            </div>","146","","0","images/D51.png","","","","[""Fine"",""Coarse""]"
"","","","","","html-slider-response","104","373900","0.0-100.0","oj8j7fd1cz","NaN","<div style=""width:500px;"">
                                <p style=""font-size:50px; font-weight:bold;""
                                ></p>
                                <div style=""width:240px; margin: auto;"">
                                    <img src=""images/D32.png"" style= ""width:200px""alt=""img"">
                                </div>
                            </div>","41","","0","images/D32.png","","","","[""Fine"",""Coarse""]"
"","","","","","html-slider-response","105","375243","0.0-101.0","oj8j7fd1cz","NaN","<div style=""width:500px;"">
                                <p style=""font-size:50px; font-weight:bold;""
                                ></p>
                                <div style=""width:240px; margin: auto;"">
                                    <img src=""images/D29.png"" style= ""width:200px""alt=""img"">
                                </div>
                            </div>","27","","0","images/D29.png","","","","[""Fine"",""Coarse""]"
"","","","","","html-slider-response","106","379328","0.0-102.0","oj8j7fd1cz","NaN","<div style=""width:500px;"">
                                <p style=""font-size:50px; font-weight:bold;""
                                ></p>
                                <div style=""width:240px; margin: auto;"">
                                    <img src=""images/D35.png"" style= ""width:200px""alt=""img"">
                                </div>
                            </div>","90","","0","images/D35.png","","","","[""Fine"",""Coarse""]"
"","","","","","html-slider-response","107","380711","0.0-103.0","oj8j7fd1cz","NaN","<div style=""width:500px;"">
                                <p style=""font-size:50px; font-weight:bold;""
                                ></p>
                                <div style=""width:240px; margin: auto;"">
                                    <img src=""images/D55.png"" style= ""width:200px""alt=""img"">
                                </div>
                            </div>","86","","0","images/D55.png","","","","[""Fine"",""Coarse""]"
"","","","","","html-slider-response","108","382409","0.0-104.0","oj8j7fd1cz","NaN","<div style=""width:500px;"">
                                <p style=""font-size:50px; font-weight:bold;""
                                ></p>
                                <div style=""width:240px; margin: auto;"">
                                    <img src=""images/D37.png"" style= ""width:200px""alt=""img"">
                                </div>
                            </div>","-126","","0","images/D37.png","","","","[""Fine"",""Coarse""]"
"","","","","","html-slider-response","109","383904","0.0-105.0","oj8j7fd1cz","NaN","<div style=""width:500px;"">
                                <p style=""font-size:50px; font-weight:bold;""
                                ></p>
                                <div style=""width:240px; margin: auto;"">
                                    <img src=""images/D53.png"" style= ""width:200px""alt=""img"">
                                </div>
                            </div>","101","","0","images/D53.png","","","","[""Fine"",""Coarse""]"
"","","","","","html-slider-response","110","385295","0.0-106.0","oj8j7fd1cz","NaN","<div style=""width:500px;"">
                                <p style=""font-size:50px; font-weight:bold;""
                                ></p>
                                <div style=""width:240px; margin: auto;"">
                                    <img src=""images/D17.png"" style= ""width:200px""alt=""img"">
                                </div>
                            </div>","153","","0","images/D17.png","","","","[""Fine"",""Coarse""]"
"","","","","","html-slider-response","111","386589","0.0-107.0","oj8j7fd1cz","NaN","<div style=""width:500px;"">
                                <p style=""font-size:50px; font-weight:bold;""
                                ></p>
                                <div style=""width:240px; margin: auto;"">
                                    <img src=""images/D56.png"" style= ""width:200px""alt=""img"">
                                </div>
                            </div>","146","","0","images/D56.png","","","","[""Fine"",""Coarse""]"
"","","","","","html-slider-response","112","388072","0.0-108.0","oj8j7fd1cz","NaN","<div style=""width:500px;"">
                                <p style=""font-size:50px; font-weight:bold;""
                                ></p>
                                <div style=""width:240px; margin: auto;"">
                                    <img src=""images/D64.png"" style= ""width:200px""alt=""img"">
                                </div>
                            </div>","135","","0","images/D64.png","","","","[""Fine"",""Coarse""]"
"","","","","","html-slider-response","113","389378","0.0-109.0","oj8j7fd1cz","NaN","<div style=""width:500px;"">
                                <p style=""font-size:50px; font-weight:bold;""
                                ></p>
                                <div style=""width:240px; margin: auto;"">
                                    <img src=""images/D68.png"" style= ""width:200px""alt=""img"">
                                </div>
                            </div>","42","","0","images/D68.png","","","","[""Fine"",""Coarse""]"
"","","","","","html-slider-response","114","390641","0.0-110.0","oj8j7fd1cz","NaN","<div style=""width:500px;"">
                                <p style=""font-size:50px; font-weight:bold;""
                                ></p>
                                <div style=""width:240px; margin: auto;"">
                                    <img src=""images/D14.png"" style= ""width:200px""alt=""img"">
                                </div>
                            </div>","-130","","0","images/D14.png","","","","[""Fine"",""Coarse""]"
"","","","","","html-slider-response","115","392378","0.0-111.0","oj8j7fd1cz","NaN","<div style=""width:500px;"">
                                <p style=""font-size:50px; font-weight:bold;""
                                ></p>
                                <div style=""width:240px; margin: auto;"">
                                    <img src=""images/D57.png"" style= ""width:200px""alt=""img"">
                                </div>
                            </div>","-6","","0","images/D57.png","","","","[""Fine"",""Coarse""]"
"","","","","","html-slider-response","116","394280","0.0-112.0","oj8j7fd1cz","NaN","<div style=""width:500px;"">
                                <p style=""font-size:50px; font-weight:bold;""
                                ></p>
                                <div style=""width:240px; margin: auto;"">
                                    <img src=""images/D48.png"" style= ""width:200px""alt=""img"">
                                </div>
                            </div>","-105","","0","images/D48.png","","","","[""Fine"",""Coarse""]"
"","","","","","html-slider-response","117","395988","0.0-113.0","oj8j7fd1cz","NaN","<div style=""width:500px;"">
                                <p style=""font-size:50px; font-weight:bold;""
                                ></p>
                                <div style=""width:240px; margin: auto;"">
                                    <img src=""images/D77.png"" style= ""width:200px""alt=""img"">
                                </div>
                            </div>","-114","","0","images/D77.png","","","","[""Fine"",""Coarse""]"
"","","","","","html-slider-response","118","397694","0.0-114.0","oj8j7fd1cz","NaN","<div style=""width:500px;"">
                                <p style=""font-size:50px; font-weight:bold;""
                                ></p>
                                <div style=""width:240px; margin: auto;"">
                                    <img src=""images/D52.png"" style= ""width:200px""alt=""img"">
                                </div>
                            </div>","-63","","0","images/D52.png","","","","[""Fine"",""Coarse""]"
"","","","","","html-slider-response","119","399147","0.0-115.0","oj8j7fd1cz","NaN","<div style=""width:500px;"">
                                <p style=""font-size:50px; font-weight:bold;""
                                ></p>
                                <div style=""width:240px; margin: auto;"">
                                    <img src=""images/D65.png"" style= ""width:200px""alt=""img"">
                                </div>
                            </div>","82","","0","images/D65.png","","","","[""Fine"",""Coarse""]"
"","","","","","html-slider-response","120","402027","0.0-116.0","oj8j7fd1cz","NaN","<div style=""width:500px;"">
                                <p style=""font-size:50px; font-weight:bold;""
                                ></p>
                                <div style=""width:240px; margin: auto;"">
                                    <img src=""images/D25.png"" style= ""width:200px""alt=""img"">
                                </div>
                            </div>","200","","0","images/D25.png","","","","[""Fine"",""Coarse""]"
"","","","","","html-slider-response","121","403555","0.0-117.0","oj8j7fd1cz","NaN","<div style=""width:500px;"">
                                <p style=""font-size:50px; font-weight:bold;""
                                ></p>
                                <div style=""width:240px; margin: auto;"">
                                    <img src=""images/D82.png"" style= ""width:200px""alt=""img"">
                                </div>
                            </div>","114","","0","images/D82.png","","","","[""Fine"",""Coarse""]"
"","","","","","html-slider-response","122","404972","0.0-118.0","oj8j7fd1cz","NaN","<div style=""width:500px;"">
                                <p style=""font-size:50px; font-weight:bold;""
                                ></p>
                                <div style=""width:240px; margin: auto;"">
                                    <img src=""images/D83.png"" style= ""width:200px""alt=""img"">
                                </div>
                            </div>","143","","0","images/D83.png","","","","[""Fine"",""Coarse""]"
"","","","","","html-slider-response","123","407647","0.0-119.0","oj8j7fd1cz","NaN","<div style=""width:500px;"">
                                <p style=""font-size:50px; font-weight:bold;""
                                ></p>
                                <div style=""width:240px; margin: auto;"">
                                    <img src=""images/D11.png"" style= ""width:200px""alt=""img"">
                                </div>
                            </div>","128","","0","images/D11.png","","","","[""Fine"",""Coarse""]"
"","","","","","html-slider-response","124","410139","0.0-120.0","oj8j7fd1cz","NaN","<div style=""width:500px;"">
                                <p style=""font-size:50px; font-weight:bold;""
                                ></p>
                                <div style=""width:240px; margin: auto;"">
                                    <img src=""images/D1.png"" style= ""width:200px""alt=""img"">
                                </div>
                            </div>","121","","0","images/D1.png","","","","[""Fine"",""Coarse""]"
"","","","","","html-slider-response","125","414438","0.0-121.0","oj8j7fd1cz","NaN","<div style=""width:500px;"">
                                <p style=""font-size:50px; font-weight:bold;""
                                ></p>
                                <div style=""width:240px; margin: auto;"">
                                    <img src=""images/D4.png"" style= ""width:200px""alt=""img"">
                                </div>
                            </div>","-54","","0","images/D4.png","","","","[""Fine"",""Coarse""]"
"","","","","","html-slider-response","126","415732","0.0-122.0","oj8j7fd1cz","NaN","<div style=""width:500px;"">
                                <p style=""font-size:50px; font-weight:bold;""
                                ></p>
                                <div style=""width:240px; margin: auto;"">
                                    <img src=""images/D26.png"" style= ""width:200px""alt=""img"">
                                </div>
                            </div>","74","","0","images/D26.png","","","","[""Fine"",""Coarse""]"
"","","","","","html-slider-response","127","416938","0.0-123.0","oj8j7fd1cz","NaN","<div style=""width:500px;"">
                                <p style=""font-size:50px; font-weight:bold;""
                                ></p>
                                <div style=""width:240px; margin: auto;"">
                                    <img src=""images/D81.png"" style= ""width:200px""alt=""img"">
                                </div>
                            </div>","92","","0","images/D81.png","","","","[""Fine"",""Coarse""]"
"","","","","","html-slider-response","128","418149","0.0-124.0","oj8j7fd1cz","NaN","<div style=""width:500px;"">
                                <p style=""font-size:50px; font-weight:bold;""
                                ></p>
                                <div style=""width:240px; margin: auto;"">
                                    <img src=""images/D34.png"" style= ""width:200px""alt=""img"">
                                </div>
                            </div>","82","","0","images/D34.png","","","","[""Fine"",""Coarse""]"
"","","","","","html-slider-response","129","419245","0.0-125.0","oj8j7fd1cz","NaN","<div style=""width:500px;"">
                                <p style=""font-size:50px; font-weight:bold;""
                                ></p>
                                <div style=""width:240px; margin: auto;"">
                                    <img src=""images/D76.png"" style= ""width:200px""alt=""img"">
                                </div>
                            </div>","63","","0","images/D76.png","","","","[""Fine"",""Coarse""]"
"","","","","","html-slider-response","130","420527","0.0-126.0","oj8j7fd1cz","NaN","<div style=""width:500px;"">
                                <p style=""font-size:50px; font-weight:bold;""
                                ></p>
                                <div style=""width:240px; margin: auto;"">
                                    <img src=""images/D6.png"" style= ""width:200px""alt=""img"">
                                </div>
                            </div>","-91","","0","images/D6.png","","","","[""Fine"",""Coarse""]"
"","","","","","html-slider-response","131","422105","0.0-127.0","oj8j7fd1cz","NaN","<div style=""width:500px;"">
                                <p style=""font-size:50px; font-weight:bold;""
                                ></p>
                                <div style=""width:240px; margin: auto;"">
                                    <img src=""images/D102.png"" style= ""width:200px""alt=""img"">
                                </div>
                            </div>","68","","0","images/D102.png","","","","[""Fine"",""Coarse""]"
"","","","","","html-slider-response","132","424515","0.0-128.0","oj8j7fd1cz","NaN","<div style=""width:500px;"">
                                <p style=""font-size:50px; font-weight:bold;""
                                ></p>
                                <div style=""width:240px; margin: auto;"">
                                    <img src=""images/D20.png"" style= ""width:200px""alt=""img"">
                                </div>
                            </div>","42","","0","images/D20.png","","","","[""Fine"",""Coarse""]"
"","","","","","html-slider-response","133","425922","0.0-129.0","oj8j7fd1cz","NaN","<div style=""width:500px;"">
                                <p style=""font-size:50px; font-weight:bold;""
                                ></p>
                                <div style=""width:240px; margin: auto;"">
                                    <img src=""images/D36.png"" style= ""width:200px""alt=""img"">
                                </div>
                            </div>","118","","0","images/D36.png","","","","[""Fine"",""Coarse""]"
"","","","","","html-slider-response","134","427226","0.0-130.0","oj8j7fd1cz","NaN","<div style=""width:500px;"">
                                <p style=""font-size:50px; font-weight:bold;""
                                ></p>
                                <div style=""width:240px; margin: auto;"">
                                    <img src=""images/D46.png"" style= ""width:200px""alt=""img"">
                                </div>
                            </div>","128","","0","images/D46.png","","","","[""Fine"",""Coarse""]"
"","","","","","html-slider-response","135","429257","0.0-131.0","oj8j7fd1cz","NaN","<div style=""width:500px;"">
                                <p style=""font-size:50px; font-weight:bold;""
                                ></p>
                                <div style=""width:240px; margin: auto;"">
                                    <img src=""images/D75.png"" style= ""width:200px""alt=""img"">
                                </div>
                            </div>","200","","0","images/D75.png","","","","[""Fine"",""Coarse""]"
"","","","","","html-slider-response","136","430640","0.0-132.0","oj8j7fd1cz","NaN","<div style=""width:500px;"">
                                <p style=""font-size:50px; font-weight:bold;""
                                ></p>
                                <div style=""width:240px; margin: auto;"">
                                    <img src=""images/D101.png"" style= ""width:200px""alt=""img"">
                                </div>
                            </div>","200","","0","images/D101.png","","","","[""Fine"",""Coarse""]"
"","","","","","html-slider-response","137","432854","0.0-133.0","oj8j7fd1cz","NaN","<div style=""width:500px;"">
                                <p style=""font-size:50px; font-weight:bold;""
                                ></p>
                                <div style=""width:240px; margin: auto;"">
                                    <img src=""images/D16.png"" style= ""width:200px""alt=""img"">
                                </div>
                            </div>","-88","","0","images/D16.png","","","","[""Fine"",""Coarse""]"
"","","","","","html-slider-response","138","435028","0.0-134.0","oj8j7fd1cz","NaN","<div style=""width:500px;"">
                                <p style=""font-size:50px; font-weight:bold;""
                                ></p>
                                <div style=""width:240px; margin: auto;"">
                                    <img src=""images/D19.png"" style= ""width:200px""alt=""img"">
                                </div>
                            </div>","124","","0","images/D19.png","","","","[""Fine"",""Coarse""]"
"","","","","","html-slider-response","139","437058","0.0-135.0","oj8j7fd1cz","NaN","<div style=""width:500px;"">
                                <p style=""font-size:50px; font-weight:bold;""
                                ></p>
                                <div style=""width:240px; margin: auto;"">
                                    <img src=""images/D18.png"" style= ""width:200px""alt=""img"">
                                </div>
                            </div>","140","","0","images/D18.png","","","","[""Fine"",""Coarse""]"
"","","","","","html-slider-response","140","438464","0.0-136.0","oj8j7fd1cz","NaN","<div style=""width:500px;"">
                                <p style=""font-size:50px; font-weight:bold;""
                                ></p>
                                <div style=""width:240px; margin: auto;"">
                                    <img src=""images/D47.png"" style= ""width:200px""alt=""img"">
                                </div>
                            </div>","200","","0","images/D47.png","","","","[""Fine"",""Coarse""]"
"","","","","","html-slider-response","141","440206","0.0-137.0","oj8j7fd1cz","NaN","<div style=""width:500px;"">
                                <p style=""font-size:50px; font-weight:bold;""
                                ></p>
                                <div style=""width:240px; margin: auto;"">
                                    <img src=""images/D87.png"" style= ""width:200px""alt=""img"">
                                </div>
                            </div>","73","","0","images/D87.png","","","","[""Fine"",""Coarse""]"
"","","","","","html-slider-response","142","441606","0.0-138.0","oj8j7fd1cz","NaN","<div style=""width:500px;"">
                                <p style=""font-size:50px; font-weight:bold;""
                                ></p>
                                <div style=""width:240px; margin: auto;"">
                                    <img src=""images/D104.png"" style= ""width:200px""alt=""img"">
                                </div>
                            </div>","146","","0","images/D104.png","","","","[""Fine"",""Coarse""]"
"","","","","","html-slider-response","143","443212","0.0-139.0","oj8j7fd1cz","NaN","<div style=""width:500px;"">
                                <p style=""font-size:50px; font-weight:bold;""
                                ></p>
                                <div style=""width:240px; margin: auto;"">
                                    <img src=""images/D9.png"" style= ""width:200px""alt=""img"">
                                </div>
                            </div>","94","","0","images/D9.png","","","","[""Fine"",""Coarse""]"
"","","","","","html-button-response","144","444827","0.0-140.0","oj8j7fd1cz","1111","You have completed the second block of trials out of six. Please click 'Continue' when you are ready proceed.","0","","","","","","",""
"","","","","","html-button-response","145","447518","0.0-141.0","oj8j7fd1cz","2689","In the following trials, you will be asked to rate textures on the scale <b>Non-Random</b> versus <b>Random</b>. Please click 'Continue' when you are ready proceed.","0","","","","","","",""
"","","","","","html-slider-response","146","449026","0.0-142.0","oj8j7fd1cz","NaN","<div style=""width:500px;"">
                                <p style=""font-size:50px; font-weight:bold;""
                                ></p>
                                <div style=""width:240px; margin: auto;"">
                                    <img src=""images/D78.png"" style= ""width:200px""alt=""img"">
                                </div>
                            </div>","-106","","0","images/D78.png","","","","[""Non-random"",""Random""]"
"","","","","","html-slider-response","147","450714","0.0-143.0","oj8j7fd1cz","NaN","<div style=""width:500px;"">
                                <p style=""font-size:50px; font-weight:bold;""
                                ></p>
                                <div style=""width:240px; margin: auto;"">
                                    <img src=""images/D24.png"" style= ""width:200px""alt=""img"">
                                </div>
                            </div>","49","","0","images/D24.png","","","","[""Non-random"",""Random""]"
"","","","","","html-slider-response","148","452147","0.0-144.0","oj8j7fd1cz","NaN","<div style=""width:500px;"">
                                <p style=""font-size:50px; font-weight:bold;""
                                ></p>
                                <div style=""width:240px; margin: auto;"">
                                    <img src=""images/D80.png"" style= ""width:200px""alt=""img"">
                                </div>
                            </div>","41","","0","images/D80.png","","","","[""Non-random"",""Random""]"
"","","","","","html-slider-response","149","454404","0.0-145.0","oj8j7fd1cz","NaN","<div style=""width:500px;"">
                                <p style=""font-size:50px; font-weight:bold;""
                                ></p>
                                <div style=""width:240px; margin: auto;"">
                                    <img src=""images/D103.png"" style= ""width:200px""alt=""img"">
                                </div>
                            </div>","64","","0","images/D103.png","","","","[""Non-random"",""Random""]"
"","","","","","html-slider-response","150","455795","0.0-146.0","oj8j7fd1cz","NaN","<div style=""width:500px;"">
                                <p style=""font-size:50px; font-weight:bold;""
                                ></p>
                                <div style=""width:240px; margin: auto;"">
                                    <img src=""images/D105.png"" style= ""width:200px""alt=""img"">
                                </div>
                            </div>","-59","","0","images/D105.png","","","","[""Non-random"",""Random""]"
"","","","","","html-slider-response","151","460565","0.0-147.0","oj8j7fd1cz","NaN","<div style=""width:500px;"">
                                <p style=""font-size:50px; font-weight:bold;""
                                ></p>
                                <div style=""width:240px; margin: auto;"">
                                    <img src=""images/D111.png"" style= ""width:200px""alt=""img"">
                                </div>
                            </div>","48","","0","images/D111.png","","","","[""Non-random"",""Random""]"
"","","","","","html-slider-response","152","463453","0.0-148.0","oj8j7fd1cz","NaN","<div style=""width:500px;"">
                                <p style=""font-size:50px; font-weight:bold;""
                                ></p>
                                <div style=""width:240px; margin: auto;"">
                                    <img src=""images/D94.png"" style= ""width:200px""alt=""img"">
                                </div>
                            </div>","-200","","0","images/D94.png","","","","[""Non-random"",""Random""]"
"","","","","","html-slider-response","153","465023","0.0-149.0","oj8j7fd1cz","NaN","<div style=""width:500px;"">
                                <p style=""font-size:50px; font-weight:bold;""
                                ></p>
                                <div style=""width:240px; margin: auto;"">
                                    <img src=""images/D95.png"" style= ""width:200px""alt=""img"">
                                </div>
                            </div>","-200","","0","images/D95.png","","","","[""Non-random"",""Random""]"
"","","","","","html-slider-response","154","467373","0.0-150.0","oj8j7fd1cz","NaN","<div style=""width:500px;"">
                                <p style=""font-size:50px; font-weight:bold;""
                                ></p>
                                <div style=""width:240px; margin: auto;"">
                                    <img src=""images/D49.png"" style= ""width:200px""alt=""img"">
                                </div>
                            </div>","-68","","0","images/D49.png","","","","[""Non-random"",""Random""]"
"","","","","","html-slider-response","155","505280","0.0-151.0","oj8j7fd1cz","NaN","<div style=""width:500px;"">
                                <p style=""font-size:50px; font-weight:bold;""
                                ></p>
                                <div style=""width:240px; margin: auto;"">
                                    <img src=""images/D3.png"" style= ""width:200px""alt=""img"">
                                </div>
                            </div>","-111","","0","images/D3.png","","","","[""Non-random"",""Random""]"
"","","","","","html-slider-response","156","510626","0.0-152.0","oj8j7fd1cz","NaN","<div style=""width:500px;"">
                                <p style=""font-size:50px; font-weight:bold;""
                                ></p>
                                <div style=""width:240px; margin: auto;"">
                                    <img src=""images/D22.png"" style= ""width:200px""alt=""img"">
                                </div>
                            </div>","71","","0","images/D22.png","","","","[""Non-random"",""Random""]"
"","","","","","html-slider-response","157","512278","0.0-153.0","oj8j7fd1cz","NaN","<div style=""width:500px;"">
                                <p style=""font-size:50px; font-weight:bold;""
                                ></p>
                                <div style=""width:240px; margin: auto;"">
                                    <img src=""images/D74.png"" style= ""width:200px""alt=""img"">
                                </div>
                            </div>","-166","","0","images/D74.png","","","","[""Non-random"",""Random""]"
"","","","","","html-slider-response","158","513930","0.0-154.0","oj8j7fd1cz","NaN","<div style=""width:500px;"">
                                <p style=""font-size:50px; font-weight:bold;""
                                ></p>
                                <div style=""width:240px; margin: auto;"">
                                    <img src=""images/D96.png"" style= ""width:200px""alt=""img"">
                                </div>
                            </div>","-200","","0","images/D96.png","","","","[""Non-random"",""Random""]"
"","","","","","html-slider-response","159","515458","0.0-155.0","oj8j7fd1cz","NaN","<div style=""width:500px;"">
                                <p style=""font-size:50px; font-weight:bold;""
                                ></p>
                                <div style=""width:240px; margin: auto;"">
                                    <img src=""images/D8.png"" style= ""width:200px""alt=""img"">
                                </div>
                            </div>","133","","0","images/D8.png","","","","[""Non-random"",""Random""]"
"","","","","","html-slider-response","160","519257","0.0-156.0","oj8j7fd1cz","NaN","<div style=""width:500px;"">
                                <p style=""font-size:50px; font-weight:bold;""
                                ></p>
                                <div style=""width:240px; margin: auto;"">
                                    <img src=""images/D21.png"" style= ""width:200px""alt=""img"">
                                </div>
                            </div>","169","","0","images/D21.png","","","","[""Non-random"",""Random""]"
"","","","","","html-slider-response","161","520686","0.0-157.0","oj8j7fd1cz","NaN","<div style=""width:500px;"">
                                <p style=""font-size:50px; font-weight:bold;""
                                ></p>
                                <div style=""width:240px; margin: auto;"">
                                    <img src=""images/D85.png"" style= ""width:200px""alt=""img"">
                                </div>
                            </div>","165","","0","images/D85.png","","","","[""Non-random"",""Random""]"
"","","","","","html-slider-response","162","522073","0.0-158.0","oj8j7fd1cz","NaN","<div style=""width:500px;"">
                                <p style=""font-size:50px; font-weight:bold;""
                                ></p>
                                <div style=""width:240px; margin: auto;"">
                                    <img src=""images/D106.png"" style= ""width:200px""alt=""img"">
                                </div>
                            </div>","164","","0","images/D106.png","","","","[""Non-random"",""Random""]"
"","","","","","html-slider-response","163","523794","0.0-159.0","oj8j7fd1cz","NaN","<div style=""width:500px;"">
                                <p style=""font-size:50px; font-weight:bold;""
                                ></p>
                                <div style=""width:240px; margin: auto;"">
                                    <img src=""images/D79.png"" style= ""width:200px""alt=""img"">
                                </div>
                            </div>","89","","0","images/D79.png","","","","[""Non-random"",""Random""]"
"","","","","","html-slider-response","164","559797","0.0-160.0","oj8j7fd1cz","NaN","<div style=""width:500px;"">
                                <p style=""font-size:50px; font-weight:bold;""
                                ></p>
                                <div style=""width:240px; margin: auto;"">
                                    <img src=""images/D92.png"" style= ""width:200px""alt=""img"">
                                </div>
                            </div>","-104","","0","images/D92.png","","","","[""Non-random"",""Random""]"
"","","","","","html-slider-response","165","561083","0.0-161.0","oj8j7fd1cz","NaN","<div style=""width:500px;"">
                                <p style=""font-size:50px; font-weight:bold;""
                                ></p>
                                <div style=""width:240px; margin: auto;"">
                                    <img src=""images/D84.png"" style= ""width:200px""alt=""img"">
                                </div>
                            </div>","-64","","0","images/D84.png","","","","[""Non-random"",""Random""]"
"","","","","","html-slider-response","166","562281","0.0-162.0","oj8j7fd1cz","NaN","<div style=""width:500px;"">
                                <p style=""font-size:50px; font-weight:bold;""
                                ></p>
                                <div style=""width:240px; margin: auto;"">
                                    <img src=""images/D66.png"" style= ""width:200px""alt=""img"">
                                </div>
                            </div>","-75","","0","images/D66.png","","","","[""Non-random"",""Random""]"
"","","","","","html-slider-response","167","563968","0.0-163.0","oj8j7fd1cz","NaN","<div style=""width:500px;"">
                                <p style=""font-size:50px; font-weight:bold;""
                                ></p>
                                <div style=""width:240px; margin: auto;"">
                                    <img src=""images/D51.png"" style= ""width:200px""alt=""img"">
                                </div>
                            </div>","78","","0","images/D51.png","","","","[""Non-random"",""Random""]"
"","","","","","html-slider-response","168","565221","0.0-164.0","oj8j7fd1cz","NaN","<div style=""width:500px;"">
                                <p style=""font-size:50px; font-weight:bold;""
                                ></p>
                                <div style=""width:240px; margin: auto;"">
                                    <img src=""images/D32.png"" style= ""width:200px""alt=""img"">
                                </div>
                            </div>","109","","0","images/D32.png","","","","[""Non-random"",""Random""]"
"","","","","","html-slider-response","169","566368","0.0-165.0","oj8j7fd1cz","NaN","<div style=""width:500px;"">
                                <p style=""font-size:50px; font-weight:bold;""
                                ></p>
                                <div style=""width:240px; margin: auto;"">
                                    <img src=""images/D29.png"" style= ""width:200px""alt=""img"">
                                </div>
                            </div>","95","","0","images/D29.png","","","","[""Non-random"",""Random""]"
"","","","","","html-slider-response","170","567550","0.0-166.0","oj8j7fd1cz","NaN","<div style=""width:500px;"">
                                <p style=""font-size:50px; font-weight:bold;""
                                ></p>
                                <div style=""width:240px; margin: auto;"">
                                    <img src=""images/D35.png"" style= ""width:200px""alt=""img"">
                                </div>
                            </div>","116","","0","images/D35.png","","","","[""Non-random"",""Random""]"
"","","","","","html-slider-response","171","568724","0.0-167.0","oj8j7fd1cz","NaN","<div style=""width:500px;"">
                                <p style=""font-size:50px; font-weight:bold;""
                                ></p>
                                <div style=""width:240px; margin: auto;"">
                                    <img src=""images/D55.png"" style= ""width:200px""alt=""img"">
                                </div>
                            </div>","114","","0","images/D55.png","","","","[""Non-random"",""Random""]"
"","","","","","html-slider-response","172","569969","0.0-168.0","oj8j7fd1cz","NaN","<div style=""width:500px;"">
                                <p style=""font-size:50px; font-weight:bold;""
                                ></p>
                                <div style=""width:240px; margin: auto;"">
                                    <img src=""images/D37.png"" style= ""width:200px""alt=""img"">
                                </div>
                            </div>","-66","","0","images/D37.png","","","","[""Non-random"",""Random""]"
"","","","","","html-slider-response","173","571052","0.0-169.0","oj8j7fd1cz","NaN","<div style=""width:500px;"">
                                <p style=""font-size:50px; font-weight:bold;""
                                ></p>
                                <div style=""width:240px; margin: auto;"">
                                    <img src=""images/D53.png"" style= ""width:200px""alt=""img"">
                                </div>
                            </div>","-50","","0","images/D53.png","","","","[""Non-random"",""Random""]"
"","","","","","html-slider-response","174","572152","0.0-170.0","oj8j7fd1cz","NaN","<div style=""width:500px;"">
                                <p style=""font-size:50px; font-weight:bold;""
                                ></p>
                                <div style=""width:240px; margin: auto;"">
                                    <img src=""images/D17.png"" style= ""width:200px""alt=""img"">
                                </div>
                            </div>","-53","","0","images/D17.png","","","","[""Non-random"",""Random""]"
"","","","","","html-slider-response","175","573367","0.0-171.0","oj8j7fd1cz","NaN","<div style=""width:500px;"">
                                <p style=""font-size:50px; font-weight:bold;""
                                ></p>
                                <div style=""width:240px; margin: auto;"">
                                    <img src=""images/D56.png"" style= ""width:200px""alt=""img"">
                                </div>
                            </div>","56","","0","images/D56.png","","","","[""Non-random"",""Random""]"
"","","","","","html-slider-response","176","574363","0.0-172.0","oj8j7fd1cz","NaN","<div style=""width:500px;"">
                                <p style=""font-size:50px; font-weight:bold;""
                                ></p>
                                <div style=""width:240px; margin: auto;"">
                                    <img src=""images/D64.png"" style= ""width:200px""alt=""img"">
                                </div>
                            </div>","36","","0","images/D64.png","","","","[""Non-random"",""Random""]"
"","","","","","html-slider-response","177","575577","0.0-173.0","oj8j7fd1cz","NaN","<div style=""width:500px;"">
                                <p style=""font-size:50px; font-weight:bold;""
                                ></p>
                                <div style=""width:240px; margin: auto;"">
                                    <img src=""images/D68.png"" style= ""width:200px""alt=""img"">
                                </div>
                            </div>","-106","","0","images/D68.png","","","","[""Non-random"",""Random""]"
"","","","","","html-slider-response","178","576813","0.0-174.0","oj8j7fd1cz","NaN","<div style=""width:500px;"">
                                <p style=""font-size:50px; font-weight:bold;""
                                ></p>
                                <div style=""width:240px; margin: auto;"">
                                    <img src=""images/D14.png"" style= ""width:200px""alt=""img"">
                                </div>
                            </div>","-43","","0","images/D14.png","","","","[""Non-random"",""Random""]"
"","","","","","html-slider-response","179","577886","0.0-175.0","oj8j7fd1cz","NaN","<div style=""width:500px;"">
                                <p style=""font-size:50px; font-weight:bold;""
                                ></p>
                                <div style=""width:240px; margin: auto;"">
                                    <img src=""images/D57.png"" style= ""width:200px""alt=""img"">
                                </div>
                            </div>","36","","0","images/D57.png","","","","[""Non-random"",""Random""]"
"","","","","","html-slider-response","180","579521","0.0-176.0","oj8j7fd1cz","NaN","<div style=""width:500px;"">
                                <p style=""font-size:50px; font-weight:bold;""
                                ></p>
                                <div style=""width:240px; margin: auto;"">
                                    <img src=""images/D48.png"" style= ""width:200px""alt=""img"">
                                </div>
                            </div>","134","","0","images/D48.png","","","","[""Non-random"",""Random""]"
"","","","","","html-slider-response","181","581486","0.0-177.0","oj8j7fd1cz","NaN","<div style=""width:500px;"">
                                <p style=""font-size:50px; font-weight:bold;""
                                ></p>
                                <div style=""width:240px; margin: auto;"">
                                    <img src=""images/D77.png"" style= ""width:200px""alt=""img"">
                                </div>
                            </div>","-100","","0","images/D77.png","","","","[""Non-random"",""Random""]"
"","","","","","html-slider-response","182","583185","0.0-178.0","oj8j7fd1cz","NaN","<div style=""width:500px;"">
                                <p style=""font-size:50px; font-weight:bold;""
                                ></p>
                                <div style=""width:240px; margin: auto;"">
                                    <img src=""images/D52.png"" style= ""width:200px""alt=""img"">
                                </div>
                            </div>","-123","","0","images/D52.png","","","","[""Non-random"",""Random""]"
"","","","","","html-slider-response","183","584731","0.0-179.0","oj8j7fd1cz","NaN","<div style=""width:500px;"">
                                <p style=""font-size:50px; font-weight:bold;""
                                ></p>
                                <div style=""width:240px; margin: auto;"">
                                    <img src=""images/D65.png"" style= ""width:200px""alt=""img"">
                                </div>
                            </div>","-200","","0","images/D65.png","","","","[""Non-random"",""Random""]"
"","","","","","html-slider-response","184","586381","0.0-180.0","oj8j7fd1cz","NaN","<div style=""width:500px;"">
                                <p style=""font-size:50px; font-weight:bold;""
                                ></p>
                                <div style=""width:240px; margin: auto;"">
                                    <img src=""images/D25.png"" style= ""width:200px""alt=""img"">
                                </div>
                            </div>","-200","","0","images/D25.png","","","","[""Non-random"",""Random""]"
"","","","","","html-slider-response","185","588444","0.0-181.0","oj8j7fd1cz","NaN","<div style=""width:500px;"">
                                <p style=""font-size:50px; font-weight:bold;""
                                ></p>
                                <div style=""width:240px; margin: auto;"">
                                    <img src=""images/D82.png"" style= ""width:200px""alt=""img"">
                                </div>
                            </div>","-41","","0","images/D82.png","","","","[""Non-random"",""Random""]"
"","","","","","html-slider-response","186","589793","0.0-182.0","oj8j7fd1cz","NaN","<div style=""width:500px;"">
                                <p style=""font-size:50px; font-weight:bold;""
                                ></p>
                                <div style=""width:240px; margin: auto;"">
                                    <img src=""images/D83.png"" style= ""width:200px""alt=""img"">
                                </div>
                            </div>","-84","","0","images/D83.png","","","","[""Non-random"",""Random""]"
"","","","","","html-slider-response","187","591369","0.0-183.0","oj8j7fd1cz","NaN","<div style=""width:500px;"">
                                <p style=""font-size:50px; font-weight:bold;""
