"success","timeout","failed_images","failed_audio","failed_video","trial_type","trial_index","time_elapsed","internal_node_id","subject_id","rt","stimulus","response","question_order","slider_start","image_path","practiceTrial","practiceTrialNum","correct","slider_labels"
"true","false","[]","[]","[]","preload","0","382","0.0-0.0","p5blrlwoyl","","","","","","","","","",""
"","","","","","html-button-response","1","1712","0.0-1.0","p5blrlwoyl","1328","<div style='text-align:center; font-size:20px; line-height:25px; width: 1200px;'>
                Welcome to our experiment! <br>
                <br>At the bottom of this screen, you will see a button that says 'Begin Experiment.
                <br>Please only click that button when you are ready to complete the 25 minute experiment in one sitting. <br>
                <br> Once you click that button, it will not be possible to restart the experiment. <br><br>","0","","","","","","",""
"true","","","","","fullscreen","2","5463","0.0-2.0","p5blrlwoyl","2748","","","","","","","","",""
"","","","","","survey-multi-select","3","75378","0.0-3.0","p5blrlwoyl","69909","","{""Consent"":[""<strong>I consent</strong>""]}","[0]","","","","","",""
"","","","","","html-button-response","4","77243","0.0-4.0","p5blrlwoyl","1861","Welcome! <p> This experiment involves two parts: demographic information, followed by the experimental task.<p> It will take about 25 minutes to complete both parts.","0","","","","","","",""
"","","","","","survey-text","5","84877","0.0-5.0","p5blrlwoyl","7629","","{""Age"":""19"",""Gender"":""female"",""Race/ethnicity"":""white""}","","","","","","",""
"","","","","","html-slider-response","6","160076","0.0-6.0","p5blrlwoyl","75196","
                <div style='text-align:center; height: auto; margin-left=-100px; margin-bottom: -20px; font-size:20px; line-height:5px; width: 1200px;'>
                    <br>During this experiment, you will see a series of textures, one at a time, like the ones below: 
                </div>
                    <br>
                    <br>
                    <img src=""anchoring_visual_textures.png"" alt=""img"" style=""max-width:1200px; margin-left: -10px;"">
                </div>
                <div style=""clear: both;""></div>
                </div>
                    <div style='text-align:center; margin-left=-100px; font-size:20px; line-height:20px; width: 1200px; margin-top: -50px;'>
                    
                    <br> For each texture, you will be asked to rate where you think it falls on each of the response scales with the following endpoints:
                    </div>
                            <div style=""text-align: center; width: 1400px; "">
                                <p style=""font-size:20px; line-height:5px; ""><b>Blobby</b> versus <b>Stripey</b></p>
                                <p style=""font-size:20px; line-height:5px; ""><b>Rounded</b> versus <b>Rectangular</b></p>
                                <p style=""font-size:20px;line-height:5px;""><b>Coarse</b> versus <b>Fine</b></p>
                                <p style=""font-size:20px;line-height:5px; ""><b>Rough</b> versus <b>Smooth</b></p>
                                <p style=""font-size:20px;line-height:5px; ""><b>Random</b> versus <b>Non-Random</b></p>
                                <p style=""font-size:20px;line-height:5px;""><b>Hard</b> versus <b>Soft</b></p>
                            </div>
                            <div style='text-align:center; font-size:20px; line-height:20px; width: 1400px;'>
                    
                    Each trial will include one texture and one response scale. You will be asked to make your rating by sliding the cursor along a slider response scale like the one below.
                    <br><br> Before beginning, please look at the textures and scales. For each scale, think about the texture you associate most with the left endpoint. When you see that texture for that response scale, please click near the left of the scale.
                    <br><br> Now, please think about the texture you associate most with the right endpoint of each scale. When you see that texture for that response scale, please click near the right of the scale. 
                    <br><br> If you think a texture is not strongly associated with either endpoint of the scale, please click near the midpoint of the scale. Please use the full range of the scale. 
                    <br><br> You will be asked to rate each texture for a given scale before moving on to the next scale.
                    <br><br> Please press the 'Continue' button for instructions on how to use the slider.                     <br><br>
                ","5","","0","visual_textures_anchoring.png","true","","",""
"","","","","","html-button-response","7","165342","0.0-7.0","p5blrlwoyl","5264","<div style=""width:1200px; margin-top:-150px;""><p style=""text-align:center; font-size:24px;"">To move the slider, click and drag your cursor to the location of the scale where you would like to make your rating and then let go. <br><br> When you let go of the slider, your response will be recorded and the next trial will begin. <br><br><br>
                We are interested in your initial impressions of each texture and scale, so please go with your first intuition. <br><br>
                Before you begin the experiment, there will be four training trials for you to practice using the scale. <br><br><br><br></div>
                <div style=""width:1200px;""><p style=""text-align:center; font-size:20px;"">When you are ready to start the training trials, please click ""Continue"".</p></div>","0","","","","","","",""
"","","","","","html-slider-response","8","168320","0.0-8.0-0.0","p5blrlwoyl","NaN","<div style=""width:500px;"">
                                <p style=""font-size:25px;"">Please move the slider all the way to the <br> right endpoint of the scale</p>

                                </div>
                            </div>","200","","0","","true","0","true",""
"","","","","","html-button-response","9","169909","0.0-8.0-1.0","p5blrlwoyl","1085","<p align='center'><b>Good job!</b> Click on 'Continue' to proceed.</p>","0","","","","","","",""
"","","","","","html-slider-response","10","171704","0.0-9.0-0.0","p5blrlwoyl","NaN","<div style=""width:500px;"">
                                <p style=""font-size:25px;"">Please move the slider all the way to the <br> left endpoint of the scale</p>

                                </div>
                            </div>","-200","","0","","true","1","true",""
"","","","","","html-button-response","11","173292","0.0-9.0-1.0","p5blrlwoyl","1084","<p align='center'><b>Good job!</b> Click on 'Continue' to proceed.</p>","0","","","","","","",""
"","","","","","html-slider-response","12","178501","0.0-10.0-0.0","p5blrlwoyl","NaN","<div style=""width:500px;"">
                                <p style=""font-size:25px;"">Please move the slider halfway between the center and right endpoint of the scale</p>

                                </div>
                            </div>","101","","0","","true","2","true",""
"","","","","","html-button-response","13","180009","0.0-10.0-1.0","p5blrlwoyl","1004","<p align='center'><b>Good job!</b> Click on 'Continue' to proceed.</p>","0","","","","","","",""
"","","","","","html-slider-response","14","183070","0.0-11.0-0.0","p5blrlwoyl","NaN","<div style=""width:500px;"">
                                <p style=""font-size:25px;"">Please move the slider halfway between the center and left endpoint of the scale</p>

                                </div>
                            </div>","-106","","0","","true","3","true",""
"","","","","","html-button-response","15","184409","0.0-11.0-1.0","p5blrlwoyl","836","<p align='center'><b>Good job!</b> Click on 'Continue' to proceed.</p>","0","","","","","","",""
"","","","","","html-button-response","16","186240","0.0-12.0","p5blrlwoyl","1831","<div style=""width:800px; margin-top:-300px;""><p style=""text-align:center; font-size:22px; line-height:25px;""""> Great job! You've completed the practice trials.</div>
                     <div style=""width:800px; margin-top:-20px;""><p style=""text-align:center""><br><br> In the following trials, you will be asked to rate textures on each scale one-by-one. <br> You will be given opportunities to take breaks when you have completed each block of trials. There are six total blocks of trials. <br><br> Please click continue to begin the main task.<br><br><br> </div>","0","","","","","","",""
"","","","","","html-button-response","17","189258","0.0-13.0","p5blrlwoyl","3017","In the following trials, you will be asked to rate textures on the scale <b>Coarse</b> versus <b>Fine</b>. Please click 'Continue' when you are ready proceed.","0","","","","","","",""
"","","","","","html-slider-response","18","193286","0.0-14.0","p5blrlwoyl","NaN","<div style=""width:500px;"">
                                <p style=""font-size:50px; font-weight:bold;""
                                ></p>
                                <div style=""width:240px; margin: auto;"">
                                    <img src=""images/D79.png"" style= ""width:200px""alt=""img"">
                                </div>
                            </div>","-96","","0","images/D79.png","","","","[""Coarse"",""Fine""]"
"","","","","","html-slider-response","19","199053","0.0-15.0","p5blrlwoyl","NaN","<div style=""width:500px;"">
                                <p style=""font-size:50px; font-weight:bold;""
                                ></p>
                                <div style=""width:240px; margin: auto;"">
                                    <img src=""images/D24.png"" style= ""width:200px""alt=""img"">
                                </div>
                            </div>","14","","0","images/D24.png","","","","[""Coarse"",""Fine""]"
"","","","","","html-slider-response","20","202236","0.0-16.0","p5blrlwoyl","NaN","<div style=""width:500px;"">
                                <p style=""font-size:50px; font-weight:bold;""
                                ></p>
                                <div style=""width:240px; margin: auto;"">
                                    <img src=""images/D51.png"" style= ""width:200px""alt=""img"">
                                </div>
                            </div>","-150","","0","images/D51.png","","","","[""Coarse"",""Fine""]"
"","","","","","html-slider-response","21","205770","0.0-17.0","p5blrlwoyl","NaN","<div style=""width:500px;"">
                                <p style=""font-size:50px; font-weight:bold;""
                                ></p>
                                <div style=""width:240px; margin: auto;"">
                                    <img src=""images/D4.png"" style= ""width:200px""alt=""img"">
                                </div>
                            </div>","119","","0","images/D4.png","","","","[""Coarse"",""Fine""]"
"","","","","","html-slider-response","22","209555","0.0-18.0","p5blrlwoyl","NaN","<div style=""width:500px;"">
                                <p style=""font-size:50px; font-weight:bold;""
                                ></p>
                                <div style=""width:240px; margin: auto;"">
                                    <img src=""images/D35.png"" style= ""width:200px""alt=""img"">
                                </div>
                            </div>","-42","","0","images/D35.png","","","","[""Coarse"",""Fine""]"
"","","","","","html-slider-response","23","212169","0.0-19.0","p5blrlwoyl","NaN","<div style=""width:500px;"">
                                <p style=""font-size:50px; font-weight:bold;""
                                ></p>
                                <div style=""width:240px; margin: auto;"">
                                    <img src=""images/D18.png"" style= ""width:200px""alt=""img"">
                                </div>
                            </div>","-124","","0","images/D18.png","","","","[""Coarse"",""Fine""]"
"","","","","","html-slider-response","24","215670","0.0-20.0","p5blrlwoyl","NaN","<div style=""width:500px;"">
                                <p style=""font-size:50px; font-weight:bold;""
                                ></p>
                                <div style=""width:240px; margin: auto;"">
                                    <img src=""images/D52.png"" style= ""width:200px""alt=""img"">
                                </div>
                            </div>","158","","0","images/D52.png","","","","[""Coarse"",""Fine""]"
"","","","","","html-slider-response","25","217920","0.0-21.0","p5blrlwoyl","NaN","<div style=""width:500px;"">
                                <p style=""font-size:50px; font-weight:bold;""
                                ></p>
                                <div style=""width:240px; margin: auto;"">
                                    <img src=""images/D37.png"" style= ""width:200px""alt=""img"">
                                </div>
                            </div>","-169","","0","images/D37.png","","","","[""Coarse"",""Fine""]"
"","","","","","html-slider-response","26","221719","0.0-22.0","p5blrlwoyl","NaN","<div style=""width:500px;"">
                                <p style=""font-size:50px; font-weight:bold;""
                                ></p>
                                <div style=""width:240px; margin: auto;"">
                                    <img src=""images/D65.png"" style= ""width:200px""alt=""img"">
                                </div>
                            </div>","62","","0","images/D65.png","","","","[""Coarse"",""Fine""]"
"","","","","","html-slider-response","27","224305","0.0-23.0","p5blrlwoyl","NaN","<div style=""width:500px;"">
                                <p style=""font-size:50px; font-weight:bold;""
                                ></p>
                                <div style=""width:240px; margin: auto;"">
                                    <img src=""images/D21.png"" style= ""width:200px""alt=""img"">
                                </div>
                            </div>","195","","0","images/D21.png","","","","[""Coarse"",""Fine""]"
"","","","","","html-slider-response","28","226919","0.0-24.0","p5blrlwoyl","NaN","<div style=""width:500px;"">
                                <p style=""font-size:50px; font-weight:bold;""
                                ></p>
                                <div style=""width:240px; margin: auto;"">
                                    <img src=""images/D82.png"" style= ""width:200px""alt=""img"">
                                </div>
                            </div>","-19","","0","images/D82.png","","","","[""Coarse"",""Fine""]"
"","","","","","html-slider-response","29","230669","0.0-25.0","p5blrlwoyl","NaN","<div style=""width:500px;"">
                                <p style=""font-size:50px; font-weight:bold;""
                                ></p>
                                <div style=""width:240px; margin: auto;"">
                                    <img src=""images/D85.png"" style= ""width:200px""alt=""img"">
                                </div>
                            </div>","-14","","0","images/D85.png","","","","[""Coarse"",""Fine""]"
"","","","","","html-slider-response","30","233235","0.0-26.0","p5blrlwoyl","NaN","<div style=""width:500px;"">
                                <p style=""font-size:50px; font-weight:bold;""
                                ></p>
                                <div style=""width:240px; margin: auto;"">
                                    <img src=""images/D8.png"" style= ""width:200px""alt=""img"">
                                </div>
                            </div>","-178","","0","images/D8.png","","","","[""Coarse"",""Fine""]"
"","","","","","html-slider-response","31","236037","0.0-27.0","p5blrlwoyl","NaN","<div style=""width:500px;"">
                                <p style=""font-size:50px; font-weight:bold;""
                                ></p>
                                <div style=""width:240px; margin: auto;"">
                                    <img src=""images/D19.png"" style= ""width:200px""alt=""img"">
                                </div>
                            </div>","73","","0","images/D19.png","","","","[""Coarse"",""Fine""]"
"","","","","","html-slider-response","32","239435","0.0-28.0","p5blrlwoyl","NaN","<div style=""width:500px;"">
                                <p style=""font-size:50px; font-weight:bold;""
                                ></p>
                                <div style=""width:240px; margin: auto;"">
                                    <img src=""images/D46.png"" style= ""width:200px""alt=""img"">
                                </div>
                            </div>","0","","0","images/D46.png","","","","[""Coarse"",""Fine""]"
"","","","","","html-slider-response","33","244635","0.0-29.0","p5blrlwoyl","NaN","<div style=""width:500px;"">
                                <p style=""font-size:50px; font-weight:bold;""
                                ></p>
                                <div style=""width:240px; margin: auto;"">
                                    <img src=""images/D75.png"" style= ""width:200px""alt=""img"">
                                </div>
                            </div>","-14","","0","images/D75.png","","","","[""Coarse"",""Fine""]"
"","","","","","html-slider-response","34","247269","0.0-30.0","p5blrlwoyl","NaN","<div style=""width:500px;"">
                                <p style=""font-size:50px; font-weight:bold;""
                                ></p>
                                <div style=""width:240px; margin: auto;"">
                                    <img src=""images/D11.png"" style= ""width:200px""alt=""img"">
                                </div>
                            </div>","-41","","0","images/D11.png","","","","[""Coarse"",""Fine""]"
"","","","","","html-slider-response","35","250202","0.0-31.0","p5blrlwoyl","NaN","<div style=""width:500px;"">
                                <p style=""font-size:50px; font-weight:bold;""
                                ></p>
                                <div style=""width:240px; margin: auto;"">
                                    <img src=""images/D32.png"" style= ""width:200px""alt=""img"">
                                </div>
                            </div>","164","","0","images/D32.png","","","","[""Coarse"",""Fine""]"
"","","","","","html-slider-response","36","252619","0.0-32.0","p5blrlwoyl","NaN","<div style=""width:500px;"">
                                <p style=""font-size:50px; font-weight:bold;""
                                ></p>
                                <div style=""width:240px; margin: auto;"">
                                    <img src=""images/D111.png"" style= ""width:200px""alt=""img"">
                                </div>
                            </div>","93","","0","images/D111.png","","","","[""Coarse"",""Fine""]"
"","","","","","html-slider-response","37","255687","0.0-33.0","p5blrlwoyl","NaN","<div style=""width:500px;"">
                                <p style=""font-size:50px; font-weight:bold;""
                                ></p>
                                <div style=""width:240px; margin: auto;"">
                                    <img src=""images/D53.png"" style= ""width:200px""alt=""img"">
                                </div>
                            </div>","193","","0","images/D53.png","","","","[""Coarse"",""Fine""]"
"","","","","","html-slider-response","38","258269","0.0-34.0","p5blrlwoyl","NaN","<div style=""width:500px;"">
                                <p style=""font-size:50px; font-weight:bold;""
                                ></p>
                                <div style=""width:240px; margin: auto;"">
                                    <img src=""images/D95.png"" style= ""width:200px""alt=""img"">
                                </div>
                            </div>","-174","","0","images/D95.png","","","","[""Coarse"",""Fine""]"
"","","","","","html-slider-response","39","262053","0.0-35.0","p5blrlwoyl","NaN","<div style=""width:500px;"">
                                <p style=""font-size:50px; font-weight:bold;""
                                ></p>
                                <div style=""width:240px; margin: auto;"">
                                    <img src=""images/D104.png"" style= ""width:200px""alt=""img"">
                                </div>
                            </div>","110","","0","images/D104.png","","","","[""Coarse"",""Fine""]"
"","","","","","html-slider-response","40","265286","0.0-36.0","p5blrlwoyl","NaN","<div style=""width:500px;"">
                                <p style=""font-size:50px; font-weight:bold;""
                                ></p>
                                <div style=""width:240px; margin: auto;"">
                                    <img src=""images/D6.png"" style= ""width:200px""alt=""img"">
                                </div>
                            </div>","188","","0","images/D6.png","","","","[""Coarse"",""Fine""]"
"","","","","","html-slider-response","41","267921","0.0-37.0","p5blrlwoyl","NaN","<div style=""width:500px;"">
                                <p style=""font-size:50px; font-weight:bold;""
                                ></p>
                                <div style=""width:240px; margin: auto;"">
                                    <img src=""images/D87.png"" style= ""width:200px""alt=""img"">
                                </div>
                            </div>","-90","","0","images/D87.png","","","","[""Coarse"",""Fine""]"
"","","","","","html-slider-response","42","271319","0.0-38.0","p5blrlwoyl","NaN","<div style=""width:500px;"">
                                <p style=""font-size:50px; font-weight:bold;""
                                ></p>
                                <div style=""width:240px; margin: auto;"">
                                    <img src=""images/D81.png"" style= ""width:200px""alt=""img"">
                                </div>
                            </div>","65","","0","images/D81.png","","","","[""Coarse"",""Fine""]"
"","","","","","html-slider-response","43","273571","0.0-39.0","p5blrlwoyl","NaN","<div style=""width:500px;"">
                                <p style=""font-size:50px; font-weight:bold;""
                                ></p>
                                <div style=""width:240px; margin: auto;"">
                                    <img src=""images/D96.png"" style= ""width:200px""alt=""img"">
                                </div>
                            </div>","-160","","0","images/D96.png","","","","[""Coarse"",""Fine""]"
"","","","","","html-slider-response","44","278103","0.0-40.0","p5blrlwoyl","NaN","<div style=""width:500px;"">
                                <p style=""font-size:50px; font-weight:bold;""
                                ></p>
                                <div style=""width:240px; margin: auto;"">
                                    <img src=""images/D17.png"" style= ""width:200px""alt=""img"">
                                </div>
                            </div>","131","","0","images/D17.png","","","","[""Coarse"",""Fine""]"
"","","","","","html-slider-response","45","280485","0.0-41.0","p5blrlwoyl","NaN","<div style=""width:500px;"">
                                <p style=""font-size:50px; font-weight:bold;""
                                ></p>
                                <div style=""width:240px; margin: auto;"">
                                    <img src=""images/D83.png"" style= ""width:200px""alt=""img"">
                                </div>
                            </div>","35","","0","images/D83.png","","","","[""Coarse"",""Fine""]"
"","","","","","html-slider-response","46","283984","0.0-42.0","p5blrlwoyl","NaN","<div style=""width:500px;"">
                                <p style=""font-size:50px; font-weight:bold;""
                                ></p>
                                <div style=""width:240px; margin: auto;"">
                                    <img src=""images/D57.png"" style= ""width:200px""alt=""img"">
                                </div>
                            </div>","79","","0","images/D57.png","","","","[""Coarse"",""Fine""]"
"","","","","","html-slider-response","47","287052","0.0-43.0","p5blrlwoyl","NaN","<div style=""width:500px;"">
                                <p style=""font-size:50px; font-weight:bold;""
                                ></p>
                                <div style=""width:240px; margin: auto;"">
                                    <img src=""images/D92.png"" style= ""width:200px""alt=""img"">
                                </div>
                            </div>","-7","","0","images/D92.png","","","","[""Coarse"",""Fine""]"
"","","","","","html-slider-response","48","289802","0.0-44.0","p5blrlwoyl","NaN","<div style=""width:500px;"">
                                <p style=""font-size:50px; font-weight:bold;""
                                ></p>
                                <div style=""width:240px; margin: auto;"">
                                    <img src=""images/D103.png"" style= ""width:200px""alt=""img"">
                                </div>
                            </div>","21","","0","images/D103.png","","","","[""Coarse"",""Fine""]"
"","","","","","html-slider-response","49","292468","0.0-45.0","p5blrlwoyl","NaN","<div style=""width:500px;"">
                                <p style=""font-size:50px; font-weight:bold;""
                                ></p>
                                <div style=""width:240px; margin: auto;"">
                                    <img src=""images/D36.png"" style= ""width:200px""alt=""img"">
                                </div>
                            </div>","31","","0","images/D36.png","","","","[""Coarse"",""Fine""]"
"","","","","","html-slider-response","50","296968","0.0-46.0","p5blrlwoyl","NaN","<div style=""width:500px;"">
                                <p style=""font-size:50px; font-weight:bold;""
                                ></p>
                                <div style=""width:240px; margin: auto;"">
                                    <img src=""images/D16.png"" style= ""width:200px""alt=""img"">
                                </div>
                            </div>","194","","0","images/D16.png","","","","[""Coarse"",""Fine""]"
"","","","","","html-slider-response","51","299119","0.0-47.0","p5blrlwoyl","NaN","<div style=""width:500px;"">
                                <p style=""font-size:50px; font-weight:bold;""
                                ></p>
                                <div style=""width:240px; margin: auto;"">
                                    <img src=""images/D68.png"" style= ""width:200px""alt=""img"">
                                </div>
                            </div>","93","","0","images/D68.png","","","","[""Coarse"",""Fine""]"
"","","","","","html-slider-response","52","301137","0.0-48.0","p5blrlwoyl","NaN","<div style=""width:500px;"">
                                <p style=""font-size:50px; font-weight:bold;""
                                ></p>
                                <div style=""width:240px; margin: auto;"">
                                    <img src=""images/D22.png"" style= ""width:200px""alt=""img"">
                                </div>
                            </div>","51","","0","images/D22.png","","","","[""Coarse"",""Fine""]"
"","","","","","html-slider-response","53","325302","0.0-49.0","p5blrlwoyl","NaN","<div style=""width:500px;"">
                                <p style=""font-size:50px; font-weight:bold;""
                                ></p>
                                <div style=""width:240px; margin: auto;"">
                                    <img src=""images/D1.png"" style= ""width:200px""alt=""img"">
                                </div>
                            </div>","-152","","0","images/D1.png","","","","[""Coarse"",""Fine""]"
"","","","","","html-slider-response","54","327751","0.0-50.0","p5blrlwoyl","NaN","<div style=""width:500px;"">
                                <p style=""font-size:50px; font-weight:bold;""
                                ></p>
                                <div style=""width:240px; margin: auto;"">
                                    <img src=""images/D66.png"" style= ""width:200px""alt=""img"">
                                </div>
                            </div>","-70","","0","images/D66.png","","","","[""Coarse"",""Fine""]"
"","","","","","html-slider-response","55","349884","0.0-51.0","p5blrlwoyl","NaN","<div style=""width:500px;"">
                                <p style=""font-size:50px; font-weight:bold;""
                                ></p>
                                <div style=""width:240px; margin: auto;"">
                                    <img src=""images/D29.png"" style= ""width:200px""alt=""img"">
                                </div>
                            </div>","119","","0","images/D29.png","","","","[""Coarse"",""Fine""]"
"","","","","","html-slider-response","56","352236","0.0-52.0","p5blrlwoyl","NaN","<div style=""width:500px;"">
                                <p style=""font-size:50px; font-weight:bold;""
                                ></p>
                                <div style=""width:240px; margin: auto;"">
                                    <img src=""images/D102.png"" style= ""width:200px""alt=""img"">
                                </div>
                            </div>","26","","0","images/D102.png","","","","[""Coarse"",""Fine""]"
"","","","","","html-slider-response","57","354751","0.0-53.0","p5blrlwoyl","NaN","<div style=""width:500px;"">
                                <p style=""font-size:50px; font-weight:bold;""
                                ></p>
                                <div style=""width:240px; margin: auto;"">
                                    <img src=""images/D77.png"" style= ""width:200px""alt=""img"">
                                </div>
                            </div>","200","","0","images/D77.png","","","","[""Coarse"",""Fine""]"
"","","","","","html-slider-response","58","356668","0.0-54.0","p5blrlwoyl","NaN","<div style=""width:500px;"">
                                <p style=""font-size:50px; font-weight:bold;""
                                ></p>
                                <div style=""width:240px; margin: auto;"">
                                    <img src=""images/D94.png"" style= ""width:200px""alt=""img"">
                                </div>
                            </div>","-103","","0","images/D94.png","","","","[""Coarse"",""Fine""]"
"","","","","","html-slider-response","59","360134","0.0-55.0","p5blrlwoyl","NaN","<div style=""width:500px;"">
                                <p style=""font-size:50px; font-weight:bold;""
                                ></p>
                                <div style=""width:240px; margin: auto;"">
                                    <img src=""images/D49.png"" style= ""width:200px""alt=""img"">
                                </div>
                            </div>","197","","0","images/D49.png","","","","[""Coarse"",""Fine""]"
"","","","","","html-slider-response","60","363101","0.0-56.0","p5blrlwoyl","NaN","<div style=""width:500px;"">
                                <p style=""font-size:50px; font-weight:bold;""
                                ></p>
                                <div style=""width:240px; margin: auto;"">
                                    <img src=""images/D14.png"" style= ""width:200px""alt=""img"">
                                </div>
                            </div>","84","","0","images/D14.png","","","","[""Coarse"",""Fine""]"
"","","","","","html-slider-response","61","366303","0.0-57.0","p5blrlwoyl","NaN","<div style=""width:500px;"">
                                <p style=""font-size:50px; font-weight:bold;""
                                ></p>
                                <div style=""width:240px; margin: auto;"">
                                    <img src=""images/D76.png"" style= ""width:200px""alt=""img"">
                                </div>
                            </div>","-58","","0","images/D76.png","","","","[""Coarse"",""Fine""]"
"","","","","","html-slider-response","62","369084","0.0-58.0","p5blrlwoyl","NaN","<div style=""width:500px;"">
                                <p style=""font-size:50px; font-weight:bold;""
                                ></p>
                                <div style=""width:240px; margin: auto;"">
                                    <img src=""images/D47.png"" style= ""width:200px""alt=""img"">
                                </div>
                            </div>","-22","","0","images/D47.png","","","","[""Coarse"",""Fine""]"
"","","","","","html-slider-response","63","371551","0.0-59.0","p5blrlwoyl","NaN","<div style=""width:500px;"">
                                <p style=""font-size:50px; font-weight:bold;""
                                ></p>
                                <div style=""width:240px; margin: auto;"">
                                    <img src=""images/D80.png"" style= ""width:200px""alt=""img"">
                                </div>
                            </div>","34","","0","images/D80.png","","","","[""Coarse"",""Fine""]"
"","","","","","html-slider-response","64","374451","0.0-60.0","p5blrlwoyl","NaN","<div style=""width:500px;"">
                                <p style=""font-size:50px; font-weight:bold;""
                                ></p>
                                <div style=""width:240px; margin: auto;"">
                                    <img src=""images/D26.png"" style= ""width:200px""alt=""img"">
                                </div>
                            </div>","-176","","0","images/D26.png","","","","[""Coarse"",""Fine""]"
"","","","","","html-slider-response","65","376935","0.0-61.0","p5blrlwoyl","NaN","<div style=""width:500px;"">
                                <p style=""font-size:50px; font-weight:bold;""
                                ></p>
                                <div style=""width:240px; margin: auto;"">
                                    <img src=""images/D56.png"" style= ""width:200px""alt=""img"">
                                </div>
                            </div>","-75","","0","images/D56.png","","","","[""Coarse"",""Fine""]"
"","","","","","html-slider-response","66","379085","0.0-62.0","p5blrlwoyl","NaN","<div style=""width:500px;"">
                                <p style=""font-size:50px; font-weight:bold;""
                                ></p>
                                <div style=""width:240px; margin: auto;"">
                                    <img src=""images/D3.png"" style= ""width:200px""alt=""img"">
                                </div>
                            </div>","77","","0","images/D3.png","","","","[""Coarse"",""Fine""]"
"","","","","","html-slider-response","67","381119","0.0-63.0","p5blrlwoyl","NaN","<div style=""width:500px;"">
                                <p style=""font-size:50px; font-weight:bold;""
                                ></p>
                                <div style=""width:240px; margin: auto;"">
                                    <img src=""images/D48.png"" style= ""width:200px""alt=""img"">
                                </div>
                            </div>","-142","","0","images/D48.png","","","","[""Coarse"",""Fine""]"
"","","","","","html-slider-response","68","382917","0.0-64.0","p5blrlwoyl","NaN","<div style=""width:500px;"">
                                <p style=""font-size:50px; font-weight:bold;""
                                ></p>
                                <div style=""width:240px; margin: auto;"">
                                    <img src=""images/D25.png"" style= ""width:200px""alt=""img"">
                                </div>
                            </div>","-142","","0","images/D25.png","","","","[""Coarse"",""Fine""]"
"","","","","","html-slider-response","69","385918","0.0-65.0","p5blrlwoyl","NaN","<div style=""width:500px;"">
                                <p style=""font-size:50px; font-weight:bold;""
                                ></p>
                                <div style=""width:240px; margin: auto;"">
                                    <img src=""images/D78.png"" style= ""width:200px""alt=""img"">
                                </div>
                            </div>","186","","0","images/D78.png","","","","[""Coarse"",""Fine""]"
"","","","","","html-slider-response","70","389001","0.0-66.0","p5blrlwoyl","NaN","<div style=""width:500px;"">
                                <p style=""font-size:50px; font-weight:bold;""
                                ></p>
                                <div style=""width:240px; margin: auto;"">
                                    <img src=""images/D9.png"" style= ""width:200px""alt=""img"">
                                </div>
                            </div>","184","","0","images/D9.png","","","","[""Coarse"",""Fine""]"
"","","","","","html-slider-response","71","391167","0.0-67.0","p5blrlwoyl","NaN","<div style=""width:500px;"">
                                <p style=""font-size:50px; font-weight:bold;""
                                ></p>
                                <div style=""width:240px; margin: auto;"">
                                    <img src=""images/D74.png"" style= ""width:200px""alt=""img"">
                                </div>
                            </div>","-120","","0","images/D74.png","","","","[""Coarse"",""Fine""]"
"","","","","","html-slider-response","72","393017","0.0-68.0","p5blrlwoyl","NaN","<div style=""width:500px;"">
                                <p style=""font-size:50px; font-weight:bold;""
                                ></p>
                                <div style=""width:240px; margin: auto;"">
                                    <img src=""images/D64.png"" style= ""width:200px""alt=""img"">
                                </div>
                            </div>","-127","","0","images/D64.png","","","","[""Coarse"",""Fine""]"
"","","","","","html-slider-response","73","399436","0.0-69.0","p5blrlwoyl","NaN","<div style=""width:500px;"">
                                <p style=""font-size:50px; font-weight:bold;""
                                ></p>
                                <div style=""width:240px; margin: auto;"">
                                    <img src=""images/D101.png"" style= ""width:200px""alt=""img"">
                                </div>
                            </div>","-123","","0","images/D101.png","","","","[""Coarse"",""Fine""]"
"","","","","","html-slider-response","74","402968","0.0-70.0","p5blrlwoyl","NaN","<div style=""width:500px;"">
                                <p style=""font-size:50px; font-weight:bold;""
                                ></p>
                                <div style=""width:240px; margin: auto;"">
                                    <img src=""images/D34.png"" style= ""width:200px""alt=""img"">
                                </div>
                            </div>","38","","0","images/D34.png","","","","[""Coarse"",""Fine""]"
"","","","","","html-slider-response","75","405217","0.0-71.0","p5blrlwoyl","NaN","<div style=""width:500px;"">
                                <p style=""font-size:50px; font-weight:bold;""
                                ></p>
                                <div style=""width:240px; margin: auto;"">
                                    <img src=""images/D84.png"" style= ""width:200px""alt=""img"">
                                </div>
                            </div>","134","","0","images/D84.png","","","","[""Coarse"",""Fine""]"
"","","","","","html-slider-response","76","407567","0.0-72.0","p5blrlwoyl","NaN","<div style=""width:500px;"">
                                <p style=""font-size:50px; font-weight:bold;""
                                ></p>
                                <div style=""width:240px; margin: auto;"">
                                    <img src=""images/D55.png"" style= ""width:200px""alt=""img"">
                                </div>
                            </div>","191","","0","images/D55.png","","","","[""Coarse"",""Fine""]"
"","","","","","html-slider-response","77","409699","0.0-73.0","p5blrlwoyl","NaN","<div style=""width:500px;"">
                                <p style=""font-size:50px; font-weight:bold;""
                                ></p>
                                <div style=""width:240px; margin: auto;"">
                                    <img src=""images/D20.png"" style= ""width:200px""alt=""img"">
                                </div>
                            </div>","22","","0","images/D20.png","","","","[""Coarse"",""Fine""]"
"","","","","","html-slider-response","78","412420","0.0-74.0","p5blrlwoyl","NaN","<div style=""width:500px;"">
                                <p style=""font-size:50px; font-weight:bold;""
                                ></p>
                                <div style=""width:240px; margin: auto;"">
                                    <img src=""images/D105.png"" style= ""width:200px""alt=""img"">
                                </div>
                            </div>","98","","0","images/D105.png","","","","[""Coarse"",""Fine""]"
"","","","","","html-slider-response","79","414502","0.0-75.0","p5blrlwoyl","NaN","<div style=""width:500px;"">
                                <p style=""font-size:50px; font-weight:bold;""
                                ></p>
                                <div style=""width:240px; margin: auto;"">
                                    <img src=""images/D106.png"" style= ""width:200px""alt=""img"">
                                </div>
                            </div>","115","","0","images/D106.png","","","","[""Coarse"",""Fine""]"
"","","","","","html-button-response","80","418222","0.0-76.0","p5blrlwoyl","3218","You have completed the first block of trials out of six. Please click 'Continue' when you are ready proceed.","0","","","","","","",""
"","","","","","html-button-response","81","421440","0.0-77.0","p5blrlwoyl","3217","In the following trials, you will be asked to rate textures on the scale <b>Rounded</b> versus <b>Rectangular</b>. Please click 'Continue' when you are ready proceed.","0","","","","","","",""
"","","","","","html-slider-response","82","424151","0.0-78.0","p5blrlwoyl","NaN","<div style=""width:500px;"">
                                <p style=""font-size:50px; font-weight:bold;""
                                ></p>
                                <div style=""width:240px; margin: auto;"">
                                    <img src=""images/D102.png"" style= ""width:200px""alt=""img"">
                                </div>
                            </div>","-200","","0","images/D102.png","","","","[""Rounded"",""Rectangular""]"
"","","","","","html-slider-response","83","426217","0.0-79.0","p5blrlwoyl","NaN","<div style=""width:500px;"">
                                <p style=""font-size:50px; font-weight:bold;""
                                ></p>
                                <div style=""width:240px; margin: auto;"">
                                    <img src=""images/D79.png"" style= ""width:200px""alt=""img"">
                                </div>
                            </div>","200","","0","images/D79.png","","","","[""Rounded"",""Rectangular""]"
"","","","","","html-slider-response","84","428033","0.0-80.0","p5blrlwoyl","NaN","<div style=""width:500px;"">
                                <p style=""font-size:50px; font-weight:bold;""
                                ></p>
                                <div style=""width:240px; margin: auto;"">
                                    <img src=""images/D35.png"" style= ""width:200px""alt=""img"">
                                </div>
                            </div>","-55","","0","images/D35.png","","","","[""Rounded"",""Rectangular""]"
"","","","","","html-slider-response","85","430516","0.0-81.0","p5blrlwoyl","NaN","<div style=""width:500px;"">
                                <p style=""font-size:50px; font-weight:bold;""
                                ></p>
                                <div style=""width:240px; margin: auto;"">
                                    <img src=""images/D111.png"" style= ""width:200px""alt=""img"">
                                </div>
                            </div>","-28","","0","images/D111.png","","","","[""Rounded"",""Rectangular""]"
"","","","","","html-slider-response","86","432751","0.0-82.0","p5blrlwoyl","NaN","<div style=""width:500px;"">
                                <p style=""font-size:50px; font-weight:bold;""
                                ></p>
                                <div style=""width:240px; margin: auto;"">
                                    <img src=""images/D64.png"" style= ""width:200px""alt=""img"">
                                </div>
                            </div>","200","","0","images/D64.png","","","","[""Rounded"",""Rectangular""]"
"","","","","","html-slider-response","87","442351","0.0-83.0","p5blrlwoyl","NaN","<div style=""width:500px;"">
                                <p style=""font-size:50px; font-weight:bold;""
                                ></p>
                                <div style=""width:240px; margin: auto;"">
                                    <img src=""images/D8.png"" style= ""width:200px""alt=""img"">
                                </div>
                            </div>","12","","0","images/D8.png","","","","[""Rounded"",""Rectangular""]"
"","","","","","html-slider-response","88","445667","0.0-84.0","p5blrlwoyl","NaN","<div style=""width:500px;"">
                                <p style=""font-size:50px; font-weight:bold;""
                                ></p>
                                <div style=""width:240px; margin: auto;"">
                                    <img src=""images/D57.png"" style= ""width:200px""alt=""img"">
                                </div>
                            </div>","-61","","0","images/D57.png","","","","[""Rounded"",""Rectangular""]"
"","","","","","html-slider-response","89","461367","0.0-85.0","p5blrlwoyl","NaN","<div style=""width:500px;"">
                                <p style=""font-size:50px; font-weight:bold;""
                                ></p>
                                <div style=""width:240px; margin: auto;"">
                                    <img src=""images/D16.png"" style= ""width:200px""alt=""img"">
                                </div>
                            </div>","200","","0","images/D16.png","","","","[""Rounded"",""Rectangular""]"
"","","","","","html-slider-response","90","463500","0.0-86.0","p5blrlwoyl","NaN","<div style=""width:500px;"">
                                <p style=""font-size:50px; font-weight:bold;""
                                ></p>
                                <div style=""width:240px; margin: auto;"">
                                    <img src=""images/D24.png"" style= ""width:200px""alt=""img"">
                                </div>
                            </div>","-26","","0","images/D24.png","","","","[""Rounded"",""Rectangular""]"
"","","","","","html-slider-response","91","465652","0.0-87.0","p5blrlwoyl","NaN","<div style=""width:500px;"">
                                <p style=""font-size:50px; font-weight:bold;""
                                ></p>
                                <div style=""width:240px; margin: auto;"">
                                    <img src=""images/D101.png"" style= ""width:200px""alt=""img"">
                                </div>
                            </div>","-200","","0","images/D101.png","","","","[""Rounded"",""Rectangular""]"
"","","","","","html-slider-response","92","467616","0.0-88.0","p5blrlwoyl","NaN","<div style=""width:500px;"">
                                <p style=""font-size:50px; font-weight:bold;""
                                ></p>
                                <div style=""width:240px; margin: auto;"">
                                    <img src=""images/D75.png"" style= ""width:200px""alt=""img"">
                                </div>
                            </div>","-99","","0","images/D75.png","","","","[""Rounded"",""Rectangular""]"
"","","","","","html-slider-response","93","469933","0.0-89.0","p5blrlwoyl","NaN","<div style=""width:500px;"">
                                <p style=""font-size:50px; font-weight:bold;""
                                ></p>
                                <div style=""width:240px; margin: auto;"">
                                    <img src=""images/D65.png"" style= ""width:200px""alt=""img"">
                                </div>
                            </div>","57","","0","images/D65.png","","","","[""Rounded"",""Rectangular""]"
"","","","","","html-slider-response","94","472151","0.0-90.0","p5blrlwoyl","NaN","<div style=""width:500px;"">
                                <p style=""font-size:50px; font-weight:bold;""
                                ></p>
                                <div style=""width:240px; margin: auto;"">
                                    <img src=""images/D94.png"" style= ""width:200px""alt=""img"">
                                </div>
                            </div>","200","","0","images/D94.png","","","","[""Rounded"",""Rectangular""]"
"","","","","","html-slider-response","95","474966","0.0-91.0","p5blrlwoyl","NaN","<div style=""width:500px;"">
                                <p style=""font-size:50px; font-weight:bold;""
                                ></p>
                                <div style=""width:240px; margin: auto;"">
                                    <img src=""images/D92.png"" style= ""width:200px""alt=""img"">
                                </div>
                            </div>","-9","","0","images/D92.png","","","","[""Rounded"",""Rectangular""]"
"","","","","","html-slider-response","96","477384","0.0-92.0","p5blrlwoyl","NaN","<div style=""width:500px;"">
                                <p style=""font-size:50px; font-weight:bold;""
                                ></p>
                                <div style=""width:240px; margin: auto;"">
                                    <img src=""images/D87.png"" style= ""width:200px""alt=""img"">
                                </div>
                            </div>","-73","","0","images/D87.png","","","","[""Rounded"",""Rectangular""]"
"","","","","","html-slider-response","97","479451","0.0-93.0","p5blrlwoyl","NaN","<div style=""width:500px;"">
                                <p style=""font-size:50px; font-weight:bold;""
                                ></p>
                                <div style=""width:240px; margin: auto;"">
                                    <img src=""images/D48.png"" style= ""width:200px""alt=""img"">
                                </div>
                            </div>","-154","","0","images/D48.png","","","","[""Rounded"",""Rectangular""]"
"","","","","","html-slider-response","98","482183","0.0-94.0","p5blrlwoyl","NaN","<div style=""width:500px;"">
                                <p style=""font-size:50px; font-weight:bold;""
                                ></p>
                                <div style=""width:240px; margin: auto;"">
                                    <img src=""images/D103.png"" style= ""width:200px""alt=""img"">
                                </div>
                            </div>","134","","0","images/D103.png","","","","[""Rounded"",""Rectangular""]"
"","","","","","html-slider-response","99","484466","0.0-95.0","p5blrlwoyl","NaN","<div style=""width:500px;"">
                                <p style=""font-size:50px; font-weight:bold;""
                                ></p>
                                <div style=""width:240px; margin: auto;"">
                                    <img src=""images/D32.png"" style= ""width:200px""alt=""img"">
                                </div>
                            </div>","-91","","0","images/D32.png","","","","[""Rounded"",""Rectangular""]"
"","","","","","html-slider-response","100","486966","0.0-96.0","p5blrlwoyl","NaN","<div style=""width:500px;"">
                                <p style=""font-size:50px; font-weight:bold;""
                                ></p>
                                <div style=""width:240px; margin: auto;"">
                                    <img src=""images/D46.png"" style= ""width:200px""alt=""img"">
                                </div>
                            </div>","58","","0","images/D46.png","","","","[""Rounded"",""Rectangular""]"
"","","","","","html-slider-response","101","489135","0.0-97.0","p5blrlwoyl","NaN","<div style=""width:500px;"">
                                <p style=""font-size:50px; font-weight:bold;""
                                ></p>
                                <div style=""width:240px; margin: auto;"">
                                    <img src=""images/D53.png"" style= ""width:200px""alt=""img"">
                                </div>
                            </div>","30","","0","images/D53.png","","","","[""Rounded"",""Rectangular""]"
"","","","","","html-slider-response","102","492866","0.0-98.0","p5blrlwoyl","NaN","<div style=""width:500px;"">
                                <p style=""font-size:50px; font-weight:bold;""
                                ></p>
                                <div style=""width:240px; margin: auto;"">
                                    <img src=""images/D56.png"" style= ""width:200px""alt=""img"">
                                </div>
                            </div>","33","","0","images/D56.png","","","","[""Rounded"",""Rectangular""]"
"","","","","","html-slider-response","103","495634","0.0-99.0","p5blrlwoyl","NaN","<div style=""width:500px;"">
                                <p style=""font-size:50px; font-weight:bold;""
                                ></p>
                                <div style=""width:240px; margin: auto;"">
                                    <img src=""images/D36.png"" style= ""width:200px""alt=""img"">
                                </div>
                            </div>","-74","","0","images/D36.png","","","","[""Rounded"",""Rectangular""]"
"","","","","","html-slider-response","104","502816","0.0-100.0","p5blrlwoyl","NaN","<div style=""width:500px;"">
                                <p style=""font-size:50px; font-weight:bold;""
                                ></p>
                                <div style=""width:240px; margin: auto;"">
                                    <img src=""images/D9.png"" style= ""width:200px""alt=""img"">
                                </div>
                            </div>","-106","","0","images/D9.png","","","","[""Rounded"",""Rectangular""]"
"","","","","","html-slider-response","105","507282","0.0-101.0","p5blrlwoyl","NaN","<div style=""width:500px;"">
                                <p style=""font-size:50px; font-weight:bold;""
                                ></p>
                                <div style=""width:240px; margin: auto;"">
                                    <img src=""images/D34.png"" style= ""width:200px""alt=""img"">
                                </div>
                            </div>","-34","","0","images/D34.png","","","","[""Rounded"",""Rectangular""]"
"","","","","","html-slider-response","106","509502","0.0-102.0","p5blrlwoyl","NaN","<div style=""width:500px;"">
                                <p style=""font-size:50px; font-weight:bold;""
                                ></p>
                                <div style=""width:240px; margin: auto;"">
                                    <img src=""images/D3.png"" style= ""width:200px""alt=""img"">
                                </div>
                            </div>","-146","","0","images/D3.png","","","","[""Rounded"",""Rectangular""]"
"","","","","","html-slider-response","107","511283","0.0-103.0","p5blrlwoyl","NaN","<div style=""width:500px;"">
                                <p style=""font-size:50px; font-weight:bold;""
                                ></p>
                                <div style=""width:240px; margin: auto;"">
                                    <img src=""images/D84.png"" style= ""width:200px""alt=""img"">
                                </div>
                            </div>","-18","","0","images/D84.png","","","","[""Rounded"",""Rectangular""]"
"","","","","","html-slider-response","108","514517","0.0-104.0","p5blrlwoyl","NaN","<div style=""width:500px;"">
                                <p style=""font-size:50px; font-weight:bold;""
                                ></p>
                                <div style=""width:240px; margin: auto;"">
                                    <img src=""images/D104.png"" style= ""width:200px""alt=""img"">
                                </div>
                            </div>","28","","0","images/D104.png","","","","[""Rounded"",""Rectangular""]"
"","","","","","html-slider-response","109","516399","0.0-105.0","p5blrlwoyl","NaN","<div style=""width:500px;"">
                                <p style=""font-size:50px; font-weight:bold;""
                                ></p>
                                <div style=""width:240px; margin: auto;"">
                                    <img src=""images/D4.png"" style= ""width:200px""alt=""img"">
                                </div>
                            </div>","-27","","0","images/D4.png","","","","[""Rounded"",""Rectangular""]"
"","","","","","html-slider-response","110","518949","0.0-106.0","p5blrlwoyl","NaN","<div style=""width:500px;"">
                                <p style=""font-size:50px; font-weight:bold;""
                                ></p>
                                <div style=""width:240px; margin: auto;"">
                                    <img src=""images/D83.png"" style= ""width:200px""alt=""img"">
                                </div>
                            </div>","90","","0","images/D83.png","","","","[""Rounded"",""Rectangular""]"
"","","","","","html-slider-response","111","521216","0.0-107.0","p5blrlwoyl","NaN","<div style=""width:500px;"">
                                <p style=""font-size:50px; font-weight:bold;""
                                ></p>
                                <div style=""width:240px; margin: auto;"">
                                    <img src=""images/D29.png"" style= ""width:200px""alt=""img"">
                                </div>
                            </div>","-103","","0","images/D29.png","","","","[""Rounded"",""Rectangular""]"
"","","","","","html-slider-response","112","524099","0.0-108.0","p5blrlwoyl","NaN","<div style=""width:500px;"">
                                <p style=""font-size:50px; font-weight:bold;""
                                ></p>
                                <div style=""width:240px; margin: auto;"">
                                    <img src=""images/D96.png"" style= ""width:200px""alt=""img"">
                                </div>
                            </div>","185","","0","images/D96.png","","","","[""Rounded"",""Rectangular""]"
"","","","","","html-slider-response","113","531966","0.0-109.0","p5blrlwoyl","NaN","<div style=""width:500px;"">
                                <p style=""font-size:50px; font-weight:bold;""
                                ></p>
                                <div style=""width:240px; margin: auto;"">
                                    <img src=""images/D85.png"" style= ""width:200px""alt=""img"">
                                </div>
                            </div>","63","","0","images/D85.png","","","","[""Rounded"",""Rectangular""]"
"","","","","","html-slider-response","114","537250","0.0-110.0","p5blrlwoyl","NaN","<div style=""width:500px;"">
                                <p style=""font-size:50px; font-weight:bold;""
                                ></p>
                                <div style=""width:240px; margin: auto;"">
                                    <img src=""images/D68.png"" style= ""width:200px""alt=""img"">
                                </div>
                            </div>","131","","0","images/D68.png","","","","[""Rounded"",""Rectangular""]"
"","","","","","html-slider-response","115","541116","0.0-111.0","p5blrlwoyl","NaN","<div style=""width:500px;"">
                                <p style=""font-size:50px; font-weight:bold;""
                                ></p>
                                <div style=""width:240px; margin: auto;"">
                                    <img src=""images/D22.png"" style= ""width:200px""alt=""img"">
                                </div>
                            </div>","-29","","0","images/D22.png","","","","[""Rounded"",""Rectangular""]"
"","","","","","html-slider-response","116","545999","0.0-112.0","p5blrlwoyl","NaN","<div style=""width:500px;"">
                                <p style=""font-size:50px; font-weight:bold;""
                                ></p>
                                <div style=""width:240px; margin: auto;"">
                                    <img src=""images/D80.png"" style= ""width:200px""alt=""img"">
                                </div>
                            </div>","67","","0","images/D80.png","","","","[""Rounded"",""Rectangular""]"
"","","","","","html-slider-response","117","548932","0.0-113.0","p5blrlwoyl","NaN","<div style=""width:500px;"">
                                <p style=""font-size:50px; font-weight:bold;""
                                ></p>
                                <div style=""width:240px; margin: auto;"">
                                    <img src=""images/D6.png"" style= ""width:200px""alt=""img"">
                                </div>
                            </div>","184","","0","images/D6.png","","","","[""Rounded"",""Rectangular""]"
"","","","","","html-slider-response","118","551050","0.0-114.0","p5blrlwoyl","NaN","<div style=""width:500px;"">
                                <p style=""font-size:50px; font-weight:bold;""
                                ></p>
                                <div style=""width:240px; margin: auto;"">
                                    <img src=""images/D1.png"" style= ""width:200px""alt=""img"">
                                </div>
                            </div>","149","","0","images/D1.png","","","","[""Rounded"",""Rectangular""]"
"","","","","","html-slider-response","119","557715","0.0-115.0","p5blrlwoyl","NaN","<div style=""width:500px;"">
                                <p style=""font-size:50px; font-weight:bold;""
                                ></p>
                                <div style=""width:240px; margin: auto;"">
                                    <img src=""images/D26.png"" style= ""width:200px""alt=""img"">
                                </div>
                            </div>","200","","0","images/D26.png","","","","[""Rounded"",""Rectangular""]"
"","","","","","html-slider-response","120","559683","0.0-116.0","p5blrlwoyl","NaN","<div style=""width:500px;"">
                                <p style=""font-size:50px; font-weight:bold;""
                                ></p>
                                <div style=""width:240px; margin: auto;"">
                                    <img src=""images/D95.png"" style= ""width:200px""alt=""img"">
                                </div>
                            </div>","200","","0","images/D95.png","","","","[""Rounded"",""Rectangular""]"
"","","","","","html-slider-response","121","561715","0.0-117.0","p5blrlwoyl","NaN","<div style=""width:500px;"">
                                <p style=""font-size:50px; font-weight:bold;""
                                ></p>
                                <div style=""width:240px; margin: auto;"">
                                    <img src=""images/D105.png"" style= ""width:200px""alt=""img"">
                                </div>
                            </div>","80","","0","images/D105.png","","","","[""Rounded"",""Rectangular""]"
"","","","","","html-slider-response","122","567401","0.0-118.0","p5blrlwoyl","NaN","<div style=""width:500px;"">
                                <p style=""font-size:50px; font-weight:bold;""
                                ></p>
                                <div style=""width:240px; margin: auto;"">
                                    <img src=""images/D18.png"" style= ""width:200px""alt=""img"">
                                </div>
                            </div>","106","","0","images/D18.png","","","","[""Rounded"",""Rectangular""]"
"","","","","","html-slider-response","123","573000","0.0-119.0","p5blrlwoyl","NaN","<div style=""width:500px;"">
                                <p style=""font-size:50px; font-weight:bold;""
                                ></p>
                                <div style=""width:240px; margin: auto;"">
                                    <img src=""images/D55.png"" style= ""width:200px""alt=""img"">
                                </div>
                            </div>","62","","0","images/D55.png","","","","[""Rounded"",""Rectangular""]"
"","","","","","html-slider-response","124","576082","0.0-120.0","p5blrlwoyl","NaN","<div style=""width:500px;"">
                                <p style=""font-size:50px; font-weight:bold;""
                                ></p>
                                <div style=""width:240px; margin: auto;"">
                                    <img src=""images/D49.png"" style= ""width:200px""alt=""img"">
                                </div>
                            </div>","170","","0","images/D49.png","","","","[""Rounded"",""Rectangular""]"
"","","","","","html-slider-response","125","578684","0.0-121.0","p5blrlwoyl","NaN","<div style=""width:500px;"">
                                <p style=""font-size:50px; font-weight:bold;""
                                ></p>
                                <div style=""width:240px; margin: auto;"">
                                    <img src=""images/D77.png"" style= ""width:200px""alt=""img"">
                                </div>
                            </div>","169","","0","images/D77.png","","","","[""Rounded"",""Rectangular""]"
"","","","","","html-slider-response","126","581101","0.0-122.0","p5blrlwoyl","NaN","<div style=""width:500px;"">
                                <p style=""font-size:50px; font-weight:bold;""
                                ></p>
                                <div style=""width:240px; margin: auto;"">
                                    <img src=""images/D78.png"" style= ""width:200px""alt=""img"">
                                </div>
                            </div>","161","","0","images/D78.png","","","","[""Rounded"",""Rectangular""]"
"","","","","","html-slider-response","127","584781","0.0-123.0","p5blrlwoyl","NaN","<div style=""width:500px;"">
                                <p style=""font-size:50px; font-weight:bold;""
                                ></p>
                                <div style=""width:240px; margin: auto;"">
                                    <img src=""images/D76.png"" style= ""width:200px""alt=""img"">
                                </div>
                            </div>","151","","0","images/D76.png","","","","[""Rounded"",""Rectangular""]"
"","","","","","html-slider-response","128","587181","0.0-124.0","p5blrlwoyl","NaN","<div style=""width:500px;"">
                                <p style=""font-size:50px; font-weight:bold;""
                                ></p>
                                <div style=""width:240px; margin: auto;"">
                                    <img src=""images/D47.png"" style= ""width:200px""alt=""img"">
                                </div>
                            </div>","196","","0","images/D47.png","","","","[""Rounded"",""Rectangular""]"
"","","","","","html-slider-response","129","589448","0.0-125.0","p5blrlwoyl","NaN","<div style=""width:500px;"">
                                <p style=""font-size:50px; font-weight:bold;""
                                ></p>
                                <div style=""width:240px; margin: auto;"">
                                    <img src=""images/D81.png"" style= ""width:200px""alt=""img"">
                                </div>
                            </div>","-17","","0","images/D81.png","","","","[""Rounded"",""Rectangular""]"
"","","","","","html-slider-response","130","591132","0.0-126.0","p5blrlwoyl","NaN","<div style=""width:500px;"">
                                <p style=""font-size:50px; font-weight:bold;""
                                ></p>
                                <div style=""width:240px; margin: auto;"">
                                    <img src=""images/D25.png"" style= ""width:200px""alt=""img"">
                                </div>
                            </div>","163","","0","images/D25.png","","","","[""Rounded"",""Rectangular""]"
"","","","","","html-slider-response","131","593515","0.0-127.0","p5blrlwoyl","NaN","<div style=""width:500px;"">
                                <p style=""font-size:50px; font-weight:bold;""
                                ></p>
                                <div style=""width:240px; margin: auto;"">
                                    <img src=""images/D66.png"" style= ""width:200px""alt=""img"">
                                </div>
                            </div>","-200","","0","images/D66.png","","","","[""Rounded"",""Rectangular""]"
"","","","","","html-slider-response","132","595482","0.0-128.0","p5blrlwoyl","NaN","<div style=""width:500px;"">
                                <p style=""font-size:50px; font-weight:bold;""
                                ></p>
                                <div style=""width:240px; margin: auto;"">
                                    <img src=""images/D51.png"" style= ""width:200px""alt=""img"">
                                </div>
                            </div>","200","","0","images/D51.png","","","","[""Rounded"",""Rectangular""]"
"","","","","","html-slider-response","133","599500","0.0-129.0","p5blrlwoyl","NaN","<div style=""width:500px;"">
                                <p style=""font-size:50px; font-weight:bold;""
                                ></p>
                                <div style=""width:240px; margin: auto;"">
                                    <img src=""images/D14.png"" style= ""width:200px""alt=""img"">
                                </div>
                            </div>","200","","0","images/D14.png","","","","[""Rounded"",""Rectangular""]"
"","","","","","html-slider-response","134","602799","0.0-130.0","p5blrlwoyl","NaN","<div style=""width:500px;"">
                                <p style=""font-size:50px; font-weight:bold;""
                                ></p>
                                <div style=""width:240px; margin: auto;"">
                                    <img src=""images/D21.png"" style= ""width:200px""alt=""img"">
                                </div>
                            </div>","200","","0","images/D21.png","","","","[""Rounded"",""Rectangular""]"
"","","","","","html-slider-response","135","605734","0.0-131.0","p5blrlwoyl","NaN","<div style=""width:500px;"">
                                <p style=""font-size:50px; font-weight:bold;""
                                ></p>
                                <div style=""width:240px; margin: auto;"">
                                    <img src=""images/D17.png"" style= ""width:200px""alt=""img"">
                                </div>
                            </div>","-12","","0","images/D17.png","","","","[""Rounded"",""Rectangular""]"
"","","","","","html-slider-response","136","607732","0.0-132.0","p5blrlwoyl","NaN","<div style=""width:500px;"">
                                <p style=""font-size:50px; font-weight:bold;""
                                ></p>
                                <div style=""width:240px; margin: auto;"">
                                    <img src=""images/D20.png"" style= ""width:200px""alt=""img"">
                                </div>
                            </div>","38","","0","images/D20.png","","","","[""Rounded"",""Rectangular""]"
"","","","","","html-slider-response","137","609315","0.0-133.0","p5blrlwoyl","NaN","<div style=""width:500px;"">
                                <p style=""font-size:50px; font-weight:bold;""
                                ></p>
                                <div style=""width:240px; margin: auto;"">
                                    <img src=""images/D74.png"" style= ""width:200px""alt=""img"">
                                </div>
                            </div>","-74","","0","images/D74.png","","","","[""Rounded"",""Rectangular""]"
"","","","","","html-slider-response","138","612299","0.0-134.0","p5blrlwoyl","NaN","<div style=""width:500px;"">
                                <p style=""font-size:50px; font-weight:bold;""
                                ></p>
                                <div style=""width:240px; margin: auto;"">
                                    <img src=""images/D106.png"" style= ""width:200px""alt=""img"">
                                </div>
                            </div>","42","","0","images/D106.png","","","","[""Rounded"",""Rectangular""]"
"","","","","","html-slider-response","139","614715","0.0-135.0","p5blrlwoyl","NaN","<div style=""width:500px;"">
                                <p style=""font-size:50px; font-weight:bold;""
                                ></p>
                                <div style=""width:240px; margin: auto;"">
                                    <img src=""images/D52.png"" style= ""width:200px""alt=""img"">
                                </div>
                            </div>","-19","","0","images/D52.png","","","","[""Rounded"",""Rectangular""]"
"","","","","","html-slider-response","140","617465","0.0-136.0","p5blrlwoyl","NaN","<div style=""width:500px;"">
                                <p style=""font-size:50px; font-weight:bold;""
                                ></p>
                                <div style=""width:240px; margin: auto;"">
                                    <img src=""images/D11.png"" style= ""width:200px""alt=""img"">
                                </div>
                            </div>","118","","0","images/D11.png","","","","[""Rounded"",""Rectangular""]"
"","","","","","html-slider-response","141","619165","0.0-137.0","p5blrlwoyl","NaN","<div style=""width:500px;"">
                                <p style=""font-size:50px; font-weight:bold;""
                                ></p>
                                <div style=""width:240px; margin: auto;"">
                                    <img src=""images/D19.png"" style= ""width:200px""alt=""img"">
                                </div>
                            </div>","-58","","0","images/D19.png","","","","[""Rounded"",""Rectangular""]"
"","","","","","html-slider-response","142","621049","0.0-138.0","p5blrlwoyl","NaN","<div style=""width:500px;"">
                                <p style=""font-size:50px; font-weight:bold;""
                                ></p>
                                <div style=""width:240px; margin: auto;"">
                                    <img src=""images/D82.png"" style= ""width:200px""alt=""img"">
                                </div>
                            </div>","22","","0","images/D82.png","","","","[""Rounded"",""Rectangular""]"
"","","","","","html-slider-response","143","623966","0.0-139.0","p5blrlwoyl","NaN","<div style=""width:500px;"">
                                <p style=""font-size:50px; font-weight:bold;""
                                ></p>
                                <div style=""width:240px; margin: auto;"">
                                    <img src=""images/D37.png"" style= ""width:200px""alt=""img"">
                                </div>
                            </div>","3","","0","images/D37.png","","","","[""Rounded"",""Rectangular""]"
"","","","","","html-button-response","144","625604","0.0-140.0","p5blrlwoyl","1135","You have completed the second block of trials out of six. Please click 'Continue' when you are ready proceed.","0","","","","","","",""
"","","","","","html-button-response","145","626754","0.0-141.0","p5blrlwoyl","1148","In the following trials, you will be asked to rate textures on the scale <b>Random</b> versus <b>Non-Random</b>. Please click 'Continue' when you are ready proceed.","0","","","","","","",""
"","","","","","html-slider-response","146","630932","0.0-142.0","p5blrlwoyl","NaN","<div style=""width:500px;"">
                                <p style=""font-size:50px; font-weight:bold;""
                                ></p>
                                <div style=""width:240px; margin: auto;"">
                                    <img src=""images/D79.png"" style= ""width:200px""alt=""img"">
                                </div>
                            </div>","58","","0","images/D79.png","","","","[""Random"",""Non-random""]"
"","","","","","html-slider-response","147","632966","0.0-143.0","p5blrlwoyl","NaN","<div style=""width:500px;"">
                                <p style=""font-size:50px; font-weight:bold;""
                                ></p>
                                <div style=""width:240px; margin: auto;"">
                                    <img src=""images/D24.png"" style= ""width:200px""alt=""img"">
                                </div>
                            </div>","-125","","0","images/D24.png","","","","[""Random"",""Non-random""]"
"","","","","","html-slider-response","148","636149","0.0-144.0","p5blrlwoyl","NaN","<div style=""width:500px;"">
                                <p style=""font-size:50px; font-weight:bold;""
                                ></p>
                                <div style=""width:240px; margin: auto;"">
                                    <img src=""images/D51.png"" style= ""width:200px""alt=""img"">
                                </div>
                            </div>","50","","0","images/D51.png","","","","[""Random"",""Non-random""]"
"","","","","","html-slider-response","149","640565","0.0-145.0","p5blrlwoyl","NaN","<div style=""width:500px;"">
                                <p style=""font-size:50px; font-weight:bold;""
                                ></p>
                                <div style=""width:240px; margin: auto;"">
                                    <img src=""images/D4.png"" style= ""width:200px""alt=""img"">
                                </div>
                            </div>","-186","","0","images/D4.png","","","","[""Random"",""Non-random""]"
"","","","","","html-slider-response","150","645264","0.0-146.0","p5blrlwoyl","NaN","<div style=""width:500px;"">
                                <p style=""font-size:50px; font-weight:bold;""
                                ></p>
                                <div style=""width:240px; margin: auto;"">
                                    <img src=""images/D35.png"" style= ""width:200px""alt=""img"">
                                </div>
                            </div>","85","","0","images/D35.png","","","","[""Random"",""Non-random""]"
"","","","","","html-slider-response","151","648381","0.0-147.0","p5blrlwoyl","NaN","<div style=""width:500px;"">
                                <p style=""font-size:50px; font-weight:bold;""
                                ></p>
                                <div style=""width:240px; margin: auto;"">
                                    <img src=""images/D18.png"" style= ""width:200px""alt=""img"">
                                </div>
                            </div>","164","","0","images/D18.png","","","","[""Random"",""Non-random""]"
"","","","","","html-slider-response","152","650265","0.0-148.0","p5blrlwoyl","NaN","<div style=""width:500px;"">
                                <p style=""font-size:50px; font-weight:bold;""
                                ></p>
                                <div style=""width:240px; margin: auto;"">
                                    <img src=""images/D52.png"" style= ""width:200px""alt=""img"">
                                </div>
                            </div>","106","","0","images/D52.png","","","","[""Random"",""Non-random""]"
"","","","","","html-slider-response","153","653465","0.0-149.0","p5blrlwoyl","NaN","<div style=""width:500px;"">
                                <p style=""font-size:50px; font-weight:bold;""
                                ></p>
                                <div style=""width:240px; margin: auto;"">
                                    <img src=""images/D37.png"" style= ""width:200px""alt=""img"">
                                </div>
                            </div>","-171","","0","images/D37.png","","","","[""Random"",""Non-random""]"
"","","","","","html-slider-response","154","655949","0.0-150.0","p5blrlwoyl","NaN","<div style=""width:500px;"">
                                <p style=""font-size:50px; font-weight:bold;""
                                ></p>
                                <div style=""width:240px; margin: auto;"">
                                    <img src=""images/D65.png"" style= ""width:200px""alt=""img"">
                                </div>
                            </div>","199","","0","images/D65.png","","","","[""Random"",""Non-random""]"
"","","","","","html-slider-response","155","658148","0.0-151.0","p5blrlwoyl","NaN","<div style=""width:500px;"">
                                <p style=""font-size:50px; font-weight:bold;""
                                ></p>
                                <div style=""width:240px; margin: auto;"">
                                    <img src=""images/D21.png"" style= ""width:200px""alt=""img"">
                                </div>
                            </div>","47","","0","images/D21.png","","","","[""Random"",""Non-random""]"
"","","","","","html-slider-response","156","660299","0.0-152.0","p5blrlwoyl","NaN","<div style=""width:500px;"">
                                <p style=""font-size:50px; font-weight:bold;""
                                ></p>
                                <div style=""width:240px; margin: auto;"">
                                    <img src=""images/D82.png"" style= ""width:200px""alt=""img"">
                                </div>
                            </div>","37","","0","images/D82.png","","","","[""Random"",""Non-random""]"
"","","","","","html-slider-response","157","662332","0.0-153.0","p5blrlwoyl","NaN","<div style=""width:500px;"">
                                <p style=""font-size:50px; font-weight:bold;""
                                ></p>
                                <div style=""width:240px; margin: auto;"">
                                    <img src=""images/D85.png"" style= ""width:200px""alt=""img"">
                                </div>
                            </div>","186","","0","images/D85.png","","","","[""Random"",""Non-random""]"
"","","","","","html-slider-response","158","665948","0.0-154.0","p5blrlwoyl","NaN","<div style=""width:500px;"">
                                <p style=""font-size:50px; font-weight:bold;""
                                ></p>
                                <div style=""width:240px; margin: auto;"">
                                    <img src=""images/D8.png"" style= ""width:200px""alt=""img"">
                                </div>
                            </div>","190","","0","images/D8.png","","","","[""Random"",""Non-random""]"
"","","","","","html-slider-response","159","668115","0.0-155.0","p5blrlwoyl","NaN","<div style=""width:500px;"">
                                <p style=""font-size:50px; font-weight:bold;""
                                ></p>
                                <div style=""width:240px; margin: auto;"">
                                    <img src=""images/D19.png"" style= ""width:200px""alt=""img"">
                                </div>
                            </div>","-183","","0","images/D19.png","","","","[""Random"",""Non-random""]"
"","","","","","html-slider-response","160","670681","0.0-156.0","p5blrlwoyl","NaN","<div style=""width:500px;"">
                                <p style=""font-size:50px; font-weight:bold;""
                                ></p>
                                <div style=""width:240px; margin: auto;"">
                                    <img src=""images/D46.png"" style= ""width:200px""alt=""img"">
                                </div>
                            </div>","192","","0","images/D46.png","","","","[""Random"",""Non-random""]"
"","","","","","html-slider-response","161","673315","0.0-157.0","p5blrlwoyl","NaN","<div style=""width:500px;"">
                                <p style=""font-size:50px; font-weight:bold;""
                                ></p>
                                <div style=""width:240px; margin: auto;"">
                                    <img src=""images/D75.png"" style= ""width:200px""alt=""img"">
                                </div>
                            </div>","-190","","0","images/D75.png","","","","[""Random"",""Non-random""]"
"","","","","","html-slider-response","162","675215","0.0-158.0","p5blrlwoyl","NaN","<div style=""width:500px;"">
                                <p style=""font-size:50px; font-weight:bold;""
                                ></p>
                                <div style=""width:240px; margin: auto;"">
                                    <img src=""images/D11.png"" style= ""width:200px""alt=""img"">
                                </div>
                            </div>","196","","0","images/D11.png","","","","[""Random"",""Non-random""]"
"","","","","","html-slider-response","163","678263","0.0-159.0","p5blrlwoyl","NaN","<div style=""width:500px;"">
                                <p style=""font-size:50px; font-weight:bold;""
                                ></p>
                                <div style=""width:240px; margin: auto;"">
                                    <img src=""images/D32.png"" style= ""width:200px""alt=""img"">
                                </div>
                            </div>","-194","","0","images/D32.png","","","","[""Random"",""Non-random""]"
"","","","","","html-slider-response","164","680581","0.0-160.0","p5blrlwoyl","NaN","<div style=""width:500px;"">
                                <p style=""font-size:50px; font-weight:bold;""
                                ></p>
                                <div style=""width:240px; margin: auto;"">
                                    <img src=""images/D111.png"" style= ""width:200px""alt=""img"">
                                </div>
                            </div>","-185","","0","images/D111.png","","","","[""Random"",""Non-random""]"
"","","","","","html-slider-response","165","683832","0.0-161.0","p5blrlwoyl","NaN","<div style=""width:500px;"">
                                <p style=""font-size:50px; font-weight:bold;""
                                ></p>
                                <div style=""width:240px; margin: auto;"">
                                    <img src=""images/D53.png"" style= ""width:200px""alt=""img"">
                                </div>
                            </div>","196","","0","images/D53.png","","","","[""Random"",""Non-random""]"
"","","","","","html-slider-response","166","685882","0.0-162.0","p5blrlwoyl","NaN","<div style=""width:500px;"">
                                <p style=""font-size:50px; font-weight:bold;""
                                ></p>
                                <div style=""width:240px; margin: auto;"">
                                    <img src=""images/D95.png"" style= ""width:200px""alt=""img"">
                                </div>
                            </div>","197","","0","images/D95.png","","","","[""Random"",""Non-random""]"
"","","","","","html-slider-response","167","688564","0.0-163.0","p5blrlwoyl","NaN","<div style=""width:500px;"">
                                <p style=""font-size:50px; font-weight:bold;""
                                ></p>
                                <div style=""width:240px; margin: auto;"">
                                    <img src=""images/D104.png"" style= ""width:200px""alt=""img"">
                                </div>
                            </div>","63","","0","images/D104.png","","","","[""Random"",""Non-random""]"
"","","","","","html-slider-response","168","690847","0.0-164.0","p5blrlwoyl","NaN","<div style=""width:500px;"">
                                <p style=""font-size:50px; font-weight:bold;""
                                ></p>
                                <div style=""width:240px; margin: auto;"">
                                    <img src=""images/D6.png"" style= ""width:200px""alt=""img"">
                                </div>
                            </div>","166","","0","images/D6.png","","","","[""Random"",""Non-random""]"
"","","","","","html-slider-response","169","694763","0.0-165.0","p5blrlwoyl","NaN","<div style=""width:500px;"">
                                <p style=""font-size:50px; font-weight:bold;""
                                ></p>
                                <div style=""width:240px; margin: auto;"">
                                    <img src=""images/D87.png"" style= ""width:200px""alt=""img"">
                                </div>
                            </div>","-142","","0","images/D87.png","","","","[""Random"",""Non-random""]"
"","","","","","html-slider-response","170","699165","0.0-166.0","p5blrlwoyl","NaN","<div style=""width:500px;"">
                                <p style=""font-size:50px; font-weight:bold;""
                                ></p>
                                <div style=""width:240px; margin: auto;"">
                                    <img src=""images/D81.png"" style= ""width:200px""alt=""img"">
                                </div>
                            </div>","-52","","0","images/D81.png","","","","[""Random"",""Non-random""]"
"","","","","","html-slider-response","171","701064","0.0-167.0","p5blrlwoyl","NaN","<div style=""width:500px;"">
                                <p style=""font-size:50px; font-weight:bold;""
                                ></p>
                                <div style=""width:240px; margin: auto;"">
                                    <img src=""images/D96.png"" style= ""width:200px""alt=""img"">
                                </div>
                            </div>","199","","0","images/D96.png","","","","[""Random"",""Non-random""]"
"","","","","","html-slider-response","172","702681","0.0-168.0","p5blrlwoyl","NaN","<div style=""width:500px;"">
                                <p style=""font-size:50px; font-weight:bold;""
                                ></p>
                                <div style=""width:240px; margin: auto;"">
                                    <img src=""images/D17.png"" style= ""width:200px""alt=""img"">
                                </div>
                            </div>","199","","0","images/D17.png","","","","[""Random"",""Non-random""]"
"","","","","","html-slider-response","173","703965","0.0-169.0","p5blrlwoyl","NaN","<div style=""width:500px;"">
                                <p style=""font-size:50px; font-weight:bold;""
                                ></p>
                                <div style=""width:240px; margin: auto;"">
                                    <img src=""images/D83.png"" style= ""width:200px""alt=""img"">
                                </div>
                            </div>","199","","0","images/D83.png","","","","[""Random"",""Non-random""]"
"","","","","","html-slider-response","174","706181","0.0-170.0","p5blrlwoyl","NaN","<div style=""width:500px;"">
                                <p style=""font-size:50px; font-weight:bold;""
                                ></p>
                                <div style=""width:240px; margin: auto;"">
                                    <img src=""images/D57.png"" style= ""width:200px""alt=""img"">
                                </div>
                            </div>","-141","","0","images/D57.png","","","","[""Random"",""Non-random""]"
"","","","","","html-slider-response","175","708181","0.0-171.0","p5blrlwoyl","NaN","<div style=""width:500px;"">
                                <p style=""font-size:50px; font-weight:bold;""
                                ></p>
                                <div style=""width:240px; margin: auto;"">
                                    <img src=""images/D92.png"" style= ""width:200px""alt=""img"">
                                </div>
                            </div>","-166","","0","images/D92.png","","","","[""Random"",""Non-random""]"
"","","","","","html-slider-response","176","711397","0.0-172.0","p5blrlwoyl","NaN","<div style=""width:500px;"">
                                <p style=""font-size:50px; font-weight:bold;""
                                ></p>
                                <div style=""width:240px; margin: auto;"">
                                    <img src=""images/D103.png"" style= ""width:200px""alt=""img"">
                                </div>
                            </div>","66","","0","images/D103.png","","","","[""Random"",""Non-random""]"
"","","","","","html-slider-response","177","716581","0.0-173.0","p5blrlwoyl","NaN","<div style=""width:500px;"">
                                <p style=""font-size:50px; font-weight:bold;""
                                ></p>
                                <div style=""width:240px; margin: auto;"">
                                    <img src=""images/D36.png"" style= ""width:200px""alt=""img"">
                                </div>
                            </div>","-58","","0","images/D36.png","","","","[""Random"",""Non-random""]"
"","","","","","html-slider-response","178","722431","0.0-174.0","p5blrlwoyl","NaN","<div style=""width:500px;"">
                                <p style=""font-size:50px; font-weight:bold;""
                                ></p>
                                <div style=""width:240px; margin: auto;"">
                                    <img src=""images/D16.png"" style= ""width:200px""alt=""img"">
                                </div>
                            </div>","138","","0","images/D16.png","","","","[""Random"",""Non-random""]"
"","","","","","html-slider-response","179","726714","0.0-175.0","p5blrlwoyl","NaN","<div style=""width:500px;"">
                                <p style=""font-size:50px; font-weight:bold;""
                                ></p>
                                <div style=""width:240px; margin: auto;"">
                                    <img src=""images/D68.png"" style= ""width:200px""alt=""img"">
                                </div>
                            </div>","166","","0","images/D68.png","","","","[""Random"",""Non-random""]"
"","","","","","html-slider-response","180","731231","0.0-176.0","p5blrlwoyl","NaN","<div style=""width:500px;"">
                                <p style=""font-size:50px; font-weight:bold;""
                                ></p>
                                <div style=""width:240px; margin: auto;"">
                                    <img src=""images/D22.png"" style= ""width:200px""alt=""img"">
                                </div>
                            </div>","-129","","0","images/D22.png","","","","[""Random"",""Non-random""]"
"","","","","","html-slider-response","181","733830","0.0-177.0","p5blrlwoyl","NaN","<div style=""width:500px;"">
                                <p style=""font-size:50px; font-weight:bold;""
                                ></p>
                                <div style=""width:240px; margin: auto;"">
                                    <img src=""images/D1.png"" style= ""width:200px""alt=""img"">
                                </div>
                            </div>","194","","0","images/D1.png","","","","[""Random"",""Non-random""]"
"","","","","","html-slider-response","182","735964","0.0-178.0","p5blrlwoyl","NaN","<div style=""width:500px;"">
                                <p style=""font-size:50px; font-weight:bold;""
                                ></p>
                                <div style=""width:240px; margin: auto;"">
                                    <img src=""images/D66.png"" style= ""width:200px""alt=""img"">
                                </div>
                            </div>","-193","","0","images/D66.png","","","","[""Random"",""Non-random""]"
"","","","","","html-slider-response","183","737814","0.0-179.0","p5blrlwoyl","NaN","<div style=""width:500px;"">
                                <p style=""font-size:50px; font-weight:bold;""
                                ></p>
                                <div style=""width:240px; margin: auto;"">
                                    <img src=""images/D29.png"" style= ""width:200px""alt=""img"">
                                </div>
                            </div>","-189","","0","images/D29.png","","","","[""Random"",""Non-random""]"
"","","","","","html-slider-response","184","741497","0.0-180.0","p5blrlwoyl","NaN","<div style=""width:500px;"">
                                <p style=""font-size:50px; font-weight:bold;""
                                ></p>
                                <div style=""width:240px; margin: auto;"">
                                    <img src=""images/D102.png"" style= ""width:200px""alt=""img"">
                                </div>
                            </div>","195","","0","images/D102.png","","","","[""Random"",""Non-random""]"
"","","","","","html-slider-response","185","745614","0.0-181.0","p5blrlwoyl","NaN","<div style=""width:500px;"">
                                <p style=""font-size:50px; font-weight:bold;""
                                ></p>
                                <div style=""width:240px; margin: auto;"">
                                    <img src=""images/D77.png"" style= ""width:200px""alt=""img"">
                                </div>
                            </div>","24","","0","images/D77.png","","","","[""Random"",""Non-random""]"
"","","","","","html-slider-response","186","747732","0.0-182.0","p5blrlwoyl","NaN","<div style=""width:500px;"">
                                <p style=""font-size:50px; font-weight:bold;""
                                ></p>
                                <div style=""width:240px; margin: auto;"">
