"success","timeout","failed_images","failed_audio","failed_video","trial_type","trial_index","time_elapsed","internal_node_id","subject_id","rt","stimulus","response","question_order","slider_start","image_path","practiceTrial","practiceTrialNum","correct","slider_labels"
"true","false","[]","[]","[]","preload","0","689","0.0-0.0","pjhrpp1co2","","","","","","","","","",""
"","","","","","html-button-response","1","8433","0.0-1.0","pjhrpp1co2","7741","<div style='text-align:center; font-size:20px; line-height:25px; width: 1200px;'>
                Welcome to our experiment! <br>
                <br>At the bottom of this screen, you will see a button that says 'Begin Experiment.
                <br>Please only click that button when you are ready to complete the 25 minute experiment in one sitting. <br>
                <br> Once you click that button, it will not be possible to restart the experiment. <br><br>","0","","","","","","",""
"true","","","","","fullscreen","2","13817","0.0-2.0","pjhrpp1co2","4380","","","","","","","","",""
"","","","","","survey-multi-select","3","18998","0.0-3.0","pjhrpp1co2","5175","","{""Consent"":[""<strong>I consent</strong>""]}","[0]","","","","","",""
"","","","","","html-button-response","4","22482","0.0-4.0","pjhrpp1co2","3481","Welcome! <p> This experiment involves two parts: demographic information, followed by the experimental task.<p> It will take about 25 minutes to complete both parts.","0","","","","","","",""
"","","","","","survey-text","5","29119","0.0-5.0","pjhrpp1co2","6634","","{""Age"":""22"",""Gender"":""Female"",""Race/ethnicity"":""White""}","","","","","","",""
"","","","","","html-slider-response","6","58349","0.0-6.0","pjhrpp1co2","29226","
                <div style='text-align:center; height: auto; margin-left=-100px; margin-bottom: -20px; font-size:20px; line-height:5px; width: 1200px;'>
                    <br>During this experiment, you will see a series of textures, one at a time, like the ones below: 
                </div>
                    <br>
                    <br>
                    <img src=""anchoring_visual_textures.png"" alt=""img"" style=""max-width:1200px; margin-left: -10px;"">
                </div>
                <div style=""clear: both;""></div>
                </div>
                    <div style='text-align:center; margin-left=-100px; font-size:20px; line-height:20px; width: 1200px; margin-top: -50px;'>
                    
                    <br> For each texture, you will be asked to rate where you think it falls on each of the response scales with the following endpoints:
                    </div>
                            <div style=""text-align: center; width: 1400px; "">
                                <p style=""font-size:20px; line-height:5px; ""><b>Stripey</b> versus <b>Blobby</b></p>
                                <p style=""font-size:20px; line-height:5px; ""><b>Rectangular</b> versus <b>Rounded</b></p>
                                <p style=""font-size:20px;line-height:5px;""><b>Fine</b> versus <b>Coarse</b></p>
                                <p style=""font-size:20px;line-height:5px; ""><b>Smooth</b> versus <b>Rough</b></p>
                                <p style=""font-size:20px;line-height:5px; ""><b>Non-Random</b> versus <b>Random</b></p>
                                <p style=""font-size:20px;line-height:5px;""><b>Soft</b> versus <b>Hard</b></p>
                            </div>
                            <div style='text-align:center; font-size:20px; line-height:20px; width: 1400px;'>
                    
                    Each trial will include one texture and one response scale. You will be asked to make your rating by sliding the cursor along a slider response scale like the one below.
                    <br><br> Before beginning, please look at the textures and scales. For each scale, think about the texture you associate most with the left endpoint. When you see that texture for that response scale, please click near the left of the scale.
                    <br><br> Now, please think about the texture you associate most with the right endpoint of each scale. When you see that texture for that response scale, please click near the right of the scale. 
                    <br><br> If you think a texture is not strongly associated with either endpoint of the scale, please click near the midpoint of the scale. Please use the full range of the scale. 
                    <br><br> You will be asked to rate each texture for a given scale before moving on to the next scale.
                    <br><br> Please press the 'Continue' button for instructions on how to use the slider.                     <br><br>
                ","null","","0","visual_textures_anchoring.png","true","","",""
"","","","","","html-button-response","7","69965","0.0-7.0","pjhrpp1co2","11614","<div style=""width:1200px; margin-top:-150px;""><p style=""text-align:center; font-size:24px;"">To move the slider, click and drag your cursor to the location of the scale where you would like to make your rating and then let go. <br><br> When you let go of the slider, your response will be recorded and the next trial will begin. <br><br><br>
                We are interested in your initial impressions of each texture and scale, so please go with your first intuition. <br><br>
                Before you begin the experiment, there will be four training trials for you to practice using the scale. <br><br><br><br></div>
                <div style=""width:1200px;""><p style=""text-align:center; font-size:20px;"">When you are ready to start the training trials, please click ""Continue"".</p></div>","0","","","","","","",""
"","","","","","html-slider-response","8","72577","0.0-8.0-0.0","pjhrpp1co2","NaN","<div style=""width:500px;"">
                                <p style=""font-size:25px;"">Please move the slider all the way to the <br> right endpoint of the scale</p>

                                </div>
                            </div>","200","","0","","true","0","true",""
"","","","","","html-button-response","9","74015","0.0-8.0-1.0","pjhrpp1co2","935","<p align='center'><b>Good job!</b> Click on 'Continue' to proceed.</p>","0","","","","","","",""
"","","","","","html-slider-response","10","75758","0.0-9.0-0.0","pjhrpp1co2","NaN","<div style=""width:500px;"">
                                <p style=""font-size:25px;"">Please move the slider all the way to the <br> left endpoint of the scale</p>

                                </div>
                            </div>","-200","","0","","true","1","true",""
"","","","","","html-button-response","11","77231","0.0-9.0-1.0","pjhrpp1co2","969","<p align='center'><b>Good job!</b> Click on 'Continue' to proceed.</p>","0","","","","","","",""
"","","","","","html-slider-response","12","81660","0.0-10.0-0.0","pjhrpp1co2","NaN","<div style=""width:500px;"">
                                <p style=""font-size:25px;"">Please move the slider halfway between the center and right endpoint of the scale</p>

                                </div>
                            </div>","101","","0","","true","2","true",""
"","","","","","html-button-response","13","82847","0.0-10.0-1.0","pjhrpp1co2","685","<p align='center'><b>Good job!</b> Click on 'Continue' to proceed.</p>","0","","","","","","",""
"","","","","","html-slider-response","14","86460","0.0-11.0-0.0","pjhrpp1co2","NaN","<div style=""width:500px;"">
                                <p style=""font-size:25px;"">Please move the slider halfway between the center and left endpoint of the scale</p>

                                </div>
                            </div>","-106","","0","","true","3","true",""
"","","","","","html-button-response","15","87781","0.0-11.0-1.0","pjhrpp1co2","817","<p align='center'><b>Good job!</b> Click on 'Continue' to proceed.</p>","0","","","","","","",""
"","","","","","html-button-response","16","96448","0.0-12.0","pjhrpp1co2","8665","<div style=""width:800px; margin-top:-300px;""><p style=""text-align:center; font-size:22px; line-height:25px;""""> Great job! You've completed the practice trials.</div>
                     <div style=""width:800px; margin-top:-20px;""><p style=""text-align:center""><br><br> In the following trials, you will be asked to rate textures on each scale one-by-one. <br> You will be given opportunities to take breaks when you have completed each block of trials. There are six total blocks of trials. <br><br> Please click continue to begin the main task.<br><br><br> </div>","0","","","","","","",""
"","","","","","html-button-response","17","99715","0.0-13.0","pjhrpp1co2","3266","In the following trials, you will be asked to rate textures on the scale <b>Smooth</b> versus <b>Rough</b>. Please click 'Continue' when you are ready proceed.","0","","","","","","",""
"","","","","","html-slider-response","18","103210","0.0-14.0","pjhrpp1co2","NaN","<div style=""width:500px;"">
                                <p style=""font-size:50px; font-weight:bold;""
                                ></p>
                                <div style=""width:240px; margin: auto;"">
                                    <img src=""images/D24.png"" style= ""width:200px""alt=""img"">
                                </div>
                            </div>","155","","0","images/D24.png","","","","[""Smooth"",""Rough""]"
"","","","","","html-slider-response","19","105342","0.0-15.0","pjhrpp1co2","NaN","<div style=""width:500px;"">
                                <p style=""font-size:50px; font-weight:bold;""
                                ></p>
                                <div style=""width:240px; margin: auto;"">
                                    <img src=""images/D96.png"" style= ""width:200px""alt=""img"">
                                </div>
                            </div>","200","","0","images/D96.png","","","","[""Smooth"",""Rough""]"
"","","","","","html-slider-response","20","108009","0.0-16.0","pjhrpp1co2","NaN","<div style=""width:500px;"">
                                <p style=""font-size:50px; font-weight:bold;""
                                ></p>
                                <div style=""width:240px; margin: auto;"">
                                    <img src=""images/D111.png"" style= ""width:200px""alt=""img"">
                                </div>
                            </div>","40","","0","images/D111.png","","","","[""Smooth"",""Rough""]"
"","","","","","html-slider-response","21","111928","0.0-17.0","pjhrpp1co2","NaN","<div style=""width:500px;"">
                                <p style=""font-size:50px; font-weight:bold;""
                                ></p>
                                <div style=""width:240px; margin: auto;"">
                                    <img src=""images/D75.png"" style= ""width:200px""alt=""img"">
                                </div>
                            </div>","108","","0","images/D75.png","","","","[""Smooth"",""Rough""]"
"","","","","","html-slider-response","22","114875","0.0-18.0","pjhrpp1co2","NaN","<div style=""width:500px;"">
                                <p style=""font-size:50px; font-weight:bold;""
                                ></p>
                                <div style=""width:240px; margin: auto;"">
                                    <img src=""images/D51.png"" style= ""width:200px""alt=""img"">
                                </div>
                            </div>","-51","","0","images/D51.png","","","","[""Smooth"",""Rough""]"
"","","","","","html-slider-response","23","117709","0.0-19.0","pjhrpp1co2","NaN","<div style=""width:500px;"">
                                <p style=""font-size:50px; font-weight:bold;""
                                ></p>
                                <div style=""width:240px; margin: auto;"">
                                    <img src=""images/D80.png"" style= ""width:200px""alt=""img"">
                                </div>
                            </div>","38","","0","images/D80.png","","","","[""Smooth"",""Rough""]"
"","","","","","html-slider-response","24","120060","0.0-20.0","pjhrpp1co2","NaN","<div style=""width:500px;"">
                                <p style=""font-size:50px; font-weight:bold;""
                                ></p>
                                <div style=""width:240px; margin: auto;"">
                                    <img src=""images/D53.png"" style= ""width:200px""alt=""img"">
                                </div>
                            </div>","-123","","0","images/D53.png","","","","[""Smooth"",""Rough""]"
"","","","","","html-slider-response","25","122826","0.0-21.0","pjhrpp1co2","NaN","<div style=""width:500px;"">
                                <p style=""font-size:50px; font-weight:bold;""
                                ></p>
                                <div style=""width:240px; margin: auto;"">
                                    <img src=""images/D17.png"" style= ""width:200px""alt=""img"">
                                </div>
                            </div>","-15","","0","images/D17.png","","","","[""Smooth"",""Rough""]"
"","","","","","html-slider-response","26","125228","0.0-22.0","pjhrpp1co2","NaN","<div style=""width:500px;"">
                                <p style=""font-size:50px; font-weight:bold;""
                                ></p>
                                <div style=""width:240px; margin: auto;"">
                                    <img src=""images/D94.png"" style= ""width:200px""alt=""img"">
                                </div>
                            </div>","190","","0","images/D94.png","","","","[""Smooth"",""Rough""]"
"","","","","","html-slider-response","27","127476","0.0-23.0","pjhrpp1co2","NaN","<div style=""width:500px;"">
                                <p style=""font-size:50px; font-weight:bold;""
                                ></p>
                                <div style=""width:240px; margin: auto;"">
                                    <img src=""images/D49.png"" style= ""width:200px""alt=""img"">
                                </div>
                            </div>","-50","","0","images/D49.png","","","","[""Smooth"",""Rough""]"
"","","","","","html-slider-response","28","129725","0.0-24.0","pjhrpp1co2","NaN","<div style=""width:500px;"">
                                <p style=""font-size:50px; font-weight:bold;""
                                ></p>
                                <div style=""width:240px; margin: auto;"">
                                    <img src=""images/D47.png"" style= ""width:200px""alt=""img"">
                                </div>
                            </div>","88","","0","images/D47.png","","","","[""Smooth"",""Rough""]"
"","","","","","html-slider-response","29","132110","0.0-25.0","pjhrpp1co2","NaN","<div style=""width:500px;"">
                                <p style=""font-size:50px; font-weight:bold;""
                                ></p>
                                <div style=""width:240px; margin: auto;"">
                                    <img src=""images/D68.png"" style= ""width:200px""alt=""img"">
                                </div>
                            </div>","13","","0","images/D68.png","","","","[""Smooth"",""Rough""]"
"","","","","","html-slider-response","30","134493","0.0-26.0","pjhrpp1co2","NaN","<div style=""width:500px;"">
                                <p style=""font-size:50px; font-weight:bold;""
                                ></p>
                                <div style=""width:240px; margin: auto;"">
                                    <img src=""images/D48.png"" style= ""width:200px""alt=""img"">
                                </div>
                            </div>","39","","0","images/D48.png","","","","[""Smooth"",""Rough""]"
"","","","","","html-slider-response","31","136825","0.0-27.0","pjhrpp1co2","NaN","<div style=""width:500px;"">
                                <p style=""font-size:50px; font-weight:bold;""
                                ></p>
                                <div style=""width:240px; margin: auto;"">
                                    <img src=""images/D29.png"" style= ""width:200px""alt=""img"">
                                </div>
                            </div>","-51","","0","images/D29.png","","","","[""Smooth"",""Rough""]"
"","","","","","html-slider-response","32","139558","0.0-28.0","pjhrpp1co2","NaN","<div style=""width:500px;"">
                                <p style=""font-size:50px; font-weight:bold;""
                                ></p>
                                <div style=""width:240px; margin: auto;"">
                                    <img src=""images/D3.png"" style= ""width:200px""alt=""img"">
                                </div>
                            </div>","0","","0","images/D3.png","","","","[""Smooth"",""Rough""]"
"","","","","","html-slider-response","33","141794","0.0-29.0","pjhrpp1co2","NaN","<div style=""width:500px;"">
                                <p style=""font-size:50px; font-weight:bold;""
                                ></p>
                                <div style=""width:240px; margin: auto;"">
                                    <img src=""images/D102.png"" style= ""width:200px""alt=""img"">
                                </div>
                            </div>","0","","0","images/D102.png","","","","[""Smooth"",""Rough""]"
"","","","","","html-slider-response","34","143659","0.0-30.0","pjhrpp1co2","NaN","<div style=""width:500px;"">
                                <p style=""font-size:50px; font-weight:bold;""
                                ></p>
                                <div style=""width:240px; margin: auto;"">
                                    <img src=""images/D18.png"" style= ""width:200px""alt=""img"">
                                </div>
                            </div>","18","","0","images/D18.png","","","","[""Smooth"",""Rough""]"
"","","","","","html-slider-response","35","145760","0.0-31.0","pjhrpp1co2","NaN","<div style=""width:500px;"">
                                <p style=""font-size:50px; font-weight:bold;""
                                ></p>
                                <div style=""width:240px; margin: auto;"">
                                    <img src=""images/D32.png"" style= ""width:200px""alt=""img"">
                                </div>
                            </div>","-34","","0","images/D32.png","","","","[""Smooth"",""Rough""]"
"","","","","","html-slider-response","36","148045","0.0-32.0","pjhrpp1co2","NaN","<div style=""width:500px;"">
                                <p style=""font-size:50px; font-weight:bold;""
                                ></p>
                                <div style=""width:240px; margin: auto;"">
                                    <img src=""images/D11.png"" style= ""width:200px""alt=""img"">
                                </div>
                            </div>","30","","0","images/D11.png","","","","[""Smooth"",""Rough""]"
"","","","","","html-slider-response","37","150278","0.0-33.0","pjhrpp1co2","NaN","<div style=""width:500px;"">
                                <p style=""font-size:50px; font-weight:bold;""
                                ></p>
                                <div style=""width:240px; margin: auto;"">
                                    <img src=""images/D65.png"" style= ""width:200px""alt=""img"">
                                </div>
                            </div>","41","","0","images/D65.png","","","","[""Smooth"",""Rough""]"
"","","","","","html-slider-response","38","152709","0.0-34.0","pjhrpp1co2","NaN","<div style=""width:500px;"">
                                <p style=""font-size:50px; font-weight:bold;""
                                ></p>
                                <div style=""width:240px; margin: auto;"">
                                    <img src=""images/D52.png"" style= ""width:200px""alt=""img"">
                                </div>
                            </div>","36","","0","images/D52.png","","","","[""Smooth"",""Rough""]"
"","","","","","html-slider-response","39","154875","0.0-35.0","pjhrpp1co2","NaN","<div style=""width:500px;"">
                                <p style=""font-size:50px; font-weight:bold;""
                                ></p>
                                <div style=""width:240px; margin: auto;"">
                                    <img src=""images/D87.png"" style= ""width:200px""alt=""img"">
                                </div>
                            </div>","146","","0","images/D87.png","","","","[""Smooth"",""Rough""]"
"","","","","","html-slider-response","40","156876","0.0-36.0","pjhrpp1co2","NaN","<div style=""width:500px;"">
                                <p style=""font-size:50px; font-weight:bold;""
                                ></p>
                                <div style=""width:240px; margin: auto;"">
                                    <img src=""images/D78.png"" style= ""width:200px""alt=""img"">
                                </div>
                            </div>","-10","","0","images/D78.png","","","","[""Smooth"",""Rough""]"
"","","","","","html-slider-response","41","158676","0.0-37.0","pjhrpp1co2","NaN","<div style=""width:500px;"">
                                <p style=""font-size:50px; font-weight:bold;""
                                ></p>
                                <div style=""width:240px; margin: auto;"">
                                    <img src=""images/D4.png"" style= ""width:200px""alt=""img"">
                                </div>
                            </div>","-38","","0","images/D4.png","","","","[""Smooth"",""Rough""]"
"","","","","","html-slider-response","42","160493","0.0-38.0","pjhrpp1co2","NaN","<div style=""width:500px;"">
                                <p style=""font-size:50px; font-weight:bold;""
                                ></p>
                                <div style=""width:240px; margin: auto;"">
                                    <img src=""images/D66.png"" style= ""width:200px""alt=""img"">
                                </div>
                            </div>","22","","0","images/D66.png","","","","[""Smooth"",""Rough""]"
"","","","","","html-slider-response","43","162792","0.0-39.0","pjhrpp1co2","NaN","<div style=""width:500px;"">
                                <p style=""font-size:50px; font-weight:bold;""
                                ></p>
                                <div style=""width:240px; margin: auto;"">
                                    <img src=""images/D36.png"" style= ""width:200px""alt=""img"">
                                </div>
                            </div>","81","","0","images/D36.png","","","","[""Smooth"",""Rough""]"
"","","","","","html-slider-response","44","165343","0.0-40.0","pjhrpp1co2","NaN","<div style=""width:500px;"">
                                <p style=""font-size:50px; font-weight:bold;""
                                ></p>
                                <div style=""width:240px; margin: auto;"">
                                    <img src=""images/D37.png"" style= ""width:200px""alt=""img"">
                                </div>
                            </div>","-14","","0","images/D37.png","","","","[""Smooth"",""Rough""]"
"","","","","","html-slider-response","45","167126","0.0-41.0","pjhrpp1co2","NaN","<div style=""width:500px;"">
                                <p style=""font-size:50px; font-weight:bold;""
                                ></p>
                                <div style=""width:240px; margin: auto;"">
                                    <img src=""images/D84.png"" style= ""width:200px""alt=""img"">
                                </div>
                            </div>","-22","","0","images/D84.png","","","","[""Smooth"",""Rough""]"
"","","","","","html-slider-response","46","168875","0.0-42.0","pjhrpp1co2","NaN","<div style=""width:500px;"">
                                <p style=""font-size:50px; font-weight:bold;""
                                ></p>
                                <div style=""width:240px; margin: auto;"">
                                    <img src=""images/D22.png"" style= ""width:200px""alt=""img"">
                                </div>
                            </div>","31","","0","images/D22.png","","","","[""Smooth"",""Rough""]"
"","","","","","html-slider-response","47","171160","0.0-43.0","pjhrpp1co2","NaN","<div style=""width:500px;"">
                                <p style=""font-size:50px; font-weight:bold;""
                                ></p>
                                <div style=""width:240px; margin: auto;"">
                                    <img src=""images/D76.png"" style= ""width:200px""alt=""img"">
                                </div>
                            </div>","28","","0","images/D76.png","","","","[""Smooth"",""Rough""]"
"","","","","","html-slider-response","48","173042","0.0-44.0","pjhrpp1co2","NaN","<div style=""width:500px;"">
                                <p style=""font-size:50px; font-weight:bold;""
                                ></p>
                                <div style=""width:240px; margin: auto;"">
                                    <img src=""images/D35.png"" style= ""width:200px""alt=""img"">
                                </div>
                            </div>","47","","0","images/D35.png","","","","[""Smooth"",""Rough""]"
"","","","","","html-slider-response","49","175093","0.0-45.0","pjhrpp1co2","NaN","<div style=""width:500px;"">
                                <p style=""font-size:50px; font-weight:bold;""
                                ></p>
                                <div style=""width:240px; margin: auto;"">
                                    <img src=""images/D83.png"" style= ""width:200px""alt=""img"">
                                </div>
                            </div>","30","","0","images/D83.png","","","","[""Smooth"",""Rough""]"
"","","","","","html-slider-response","50","177525","0.0-46.0","pjhrpp1co2","NaN","<div style=""width:500px;"">
                                <p style=""font-size:50px; font-weight:bold;""
                                ></p>
                                <div style=""width:240px; margin: auto;"">
                                    <img src=""images/D46.png"" style= ""width:200px""alt=""img"">
                                </div>
                            </div>","74","","0","images/D46.png","","","","[""Smooth"",""Rough""]"
"","","","","","html-slider-response","51","179594","0.0-47.0","pjhrpp1co2","NaN","<div style=""width:500px;"">
                                <p style=""font-size:50px; font-weight:bold;""
                                ></p>
                                <div style=""width:240px; margin: auto;"">
                                    <img src=""images/D20.png"" style= ""width:200px""alt=""img"">
                                </div>
                            </div>","65","","0","images/D20.png","","","","[""Smooth"",""Rough""]"
"","","","","","html-slider-response","52","181643","0.0-48.0","pjhrpp1co2","NaN","<div style=""width:500px;"">
                                <p style=""font-size:50px; font-weight:bold;""
                                ></p>
                                <div style=""width:240px; margin: auto;"">
                                    <img src=""images/D92.png"" style= ""width:200px""alt=""img"">
                                </div>
                            </div>","-23","","0","images/D92.png","","","","[""Smooth"",""Rough""]"
"","","","","","html-slider-response","53","183744","0.0-49.0","pjhrpp1co2","NaN","<div style=""width:500px;"">
                                <p style=""font-size:50px; font-weight:bold;""
                                ></p>
                                <div style=""width:240px; margin: auto;"">
                                    <img src=""images/D9.png"" style= ""width:200px""alt=""img"">
                                </div>
                            </div>","-74","","0","images/D9.png","","","","[""Smooth"",""Rough""]"
"","","","","","html-slider-response","54","185811","0.0-50.0","pjhrpp1co2","NaN","<div style=""width:500px;"">
                                <p style=""font-size:50px; font-weight:bold;""
                                ></p>
                                <div style=""width:240px; margin: auto;"">
                                    <img src=""images/D34.png"" style= ""width:200px""alt=""img"">
                                </div>
                            </div>","78","","0","images/D34.png","","","","[""Smooth"",""Rough""]"
"","","","","","html-slider-response","55","188126","0.0-51.0","pjhrpp1co2","NaN","<div style=""width:500px;"">
                                <p style=""font-size:50px; font-weight:bold;""
                                ></p>
                                <div style=""width:240px; margin: auto;"">
                                    <img src=""images/D101.png"" style= ""width:200px""alt=""img"">
                                </div>
                            </div>","53","","0","images/D101.png","","","","[""Smooth"",""Rough""]"
"","","","","","html-slider-response","56","190477","0.0-52.0","pjhrpp1co2","NaN","<div style=""width:500px;"">
                                <p style=""font-size:50px; font-weight:bold;""
                                ></p>
                                <div style=""width:240px; margin: auto;"">
                                    <img src=""images/D77.png"" style= ""width:200px""alt=""img"">
                                </div>
                            </div>","-29","","0","images/D77.png","","","","[""Smooth"",""Rough""]"
"","","","","","html-slider-response","57","192393","0.0-53.0","pjhrpp1co2","NaN","<div style=""width:500px;"">
                                <p style=""font-size:50px; font-weight:bold;""
                                ></p>
                                <div style=""width:240px; margin: auto;"">
                                    <img src=""images/D106.png"" style= ""width:200px""alt=""img"">
                                </div>
                            </div>","-36","","0","images/D106.png","","","","[""Smooth"",""Rough""]"
"","","","","","html-slider-response","58","194360","0.0-54.0","pjhrpp1co2","NaN","<div style=""width:500px;"">
                                <p style=""font-size:50px; font-weight:bold;""
                                ></p>
                                <div style=""width:240px; margin: auto;"">
                                    <img src=""images/D55.png"" style= ""width:200px""alt=""img"">
                                </div>
                            </div>","33","","0","images/D55.png","","","","[""Smooth"",""Rough""]"
"","","","","","html-slider-response","59","196476","0.0-55.0","pjhrpp1co2","NaN","<div style=""width:500px;"">
                                <p style=""font-size:50px; font-weight:bold;""
                                ></p>
                                <div style=""width:240px; margin: auto;"">
                                    <img src=""images/D16.png"" style= ""width:200px""alt=""img"">
                                </div>
                            </div>","-35","","0","images/D16.png","","","","[""Smooth"",""Rough""]"
"","","","","","html-slider-response","60","198509","0.0-56.0","pjhrpp1co2","NaN","<div style=""width:500px;"">
                                <p style=""font-size:50px; font-weight:bold;""
                                ></p>
                                <div style=""width:240px; margin: auto;"">
                                    <img src=""images/D25.png"" style= ""width:200px""alt=""img"">
                                </div>
                            </div>","113","","0","images/D25.png","","","","[""Smooth"",""Rough""]"
"","","","","","html-slider-response","61","201075","0.0-57.0","pjhrpp1co2","NaN","<div style=""width:500px;"">
                                <p style=""font-size:50px; font-weight:bold;""
                                ></p>
                                <div style=""width:240px; margin: auto;"">
                                    <img src=""images/D14.png"" style= ""width:200px""alt=""img"">
                                </div>
                            </div>","40","","0","images/D14.png","","","","[""Smooth"",""Rough""]"
"","","","","","html-slider-response","62","203325","0.0-58.0","pjhrpp1co2","NaN","<div style=""width:500px;"">
                                <p style=""font-size:50px; font-weight:bold;""
                                ></p>
                                <div style=""width:240px; margin: auto;"">
                                    <img src=""images/D57.png"" style= ""width:200px""alt=""img"">
                                </div>
                            </div>","-16","","0","images/D57.png","","","","[""Smooth"",""Rough""]"
"","","","","","html-slider-response","63","206311","0.0-59.0","pjhrpp1co2","NaN","<div style=""width:500px;"">
                                <p style=""font-size:50px; font-weight:bold;""
                                ></p>
                                <div style=""width:240px; margin: auto;"">
                                    <img src=""images/D85.png"" style= ""width:200px""alt=""img"">
                                </div>
                            </div>","62","","0","images/D85.png","","","","[""Smooth"",""Rough""]"
"","","","","","html-slider-response","64","208511","0.0-60.0","pjhrpp1co2","NaN","<div style=""width:500px;"">
                                <p style=""font-size:50px; font-weight:bold;""
                                ></p>
                                <div style=""width:240px; margin: auto;"">
                                    <img src=""images/D56.png"" style= ""width:200px""alt=""img"">
                                </div>
                            </div>","32","","0","images/D56.png","","","","[""Smooth"",""Rough""]"
"","","","","","html-slider-response","65","210510","0.0-61.0","pjhrpp1co2","NaN","<div style=""width:500px;"">
                                <p style=""font-size:50px; font-weight:bold;""
                                ></p>
                                <div style=""width:240px; margin: auto;"">
                                    <img src=""images/D64.png"" style= ""width:200px""alt=""img"">
                                </div>
                            </div>","33","","0","images/D64.png","","","","[""Smooth"",""Rough""]"
"","","","","","html-slider-response","66","212309","0.0-62.0","pjhrpp1co2","NaN","<div style=""width:500px;"">
                                <p style=""font-size:50px; font-weight:bold;""
                                ></p>
                                <div style=""width:240px; margin: auto;"">
                                    <img src=""images/D82.png"" style= ""width:200px""alt=""img"">
                                </div>
                            </div>","46","","0","images/D82.png","","","","[""Smooth"",""Rough""]"
"","","","","","html-slider-response","67","215528","0.0-63.0","pjhrpp1co2","NaN","<div style=""width:500px;"">
                                <p style=""font-size:50px; font-weight:bold;""
                                ></p>
                                <div style=""width:240px; margin: auto;"">
                                    <img src=""images/D81.png"" style= ""width:200px""alt=""img"">
                                </div>
                            </div>","-41","","0","images/D81.png","","","","[""Smooth"",""Rough""]"
"","","","","","html-slider-response","68","218327","0.0-64.0","pjhrpp1co2","NaN","<div style=""width:500px;"">
                                <p style=""font-size:50px; font-weight:bold;""
                                ></p>
                                <div style=""width:240px; margin: auto;"">
                                    <img src=""images/D1.png"" style= ""width:200px""alt=""img"">
                                </div>
                            </div>","24","","0","images/D1.png","","","","[""Smooth"",""Rough""]"
"","","","","","html-slider-response","69","220659","0.0-65.0","pjhrpp1co2","NaN","<div style=""width:500px;"">
                                <p style=""font-size:50px; font-weight:bold;""
                                ></p>
                                <div style=""width:240px; margin: auto;"">
                                    <img src=""images/D19.png"" style= ""width:200px""alt=""img"">
                                </div>
                            </div>","30","","0","images/D19.png","","","","[""Smooth"",""Rough""]"
"","","","","","html-slider-response","70","222993","0.0-66.0","pjhrpp1co2","NaN","<div style=""width:500px;"">
                                <p style=""font-size:50px; font-weight:bold;""
                                ></p>
                                <div style=""width:240px; margin: auto;"">
                                    <img src=""images/D6.png"" style= ""width:200px""alt=""img"">
                                </div>
                            </div>","-18","","0","images/D6.png","","","","[""Smooth"",""Rough""]"
"","","","","","html-slider-response","71","225410","0.0-67.0","pjhrpp1co2","NaN","<div style=""width:500px;"">
                                <p style=""font-size:50px; font-weight:bold;""
                                ></p>
                                <div style=""width:240px; margin: auto;"">
                                    <img src=""images/D21.png"" style= ""width:200px""alt=""img"">
                                </div>
                            </div>","-28","","0","images/D21.png","","","","[""Smooth"",""Rough""]"
"","","","","","html-slider-response","72","227143","0.0-68.0","pjhrpp1co2","NaN","<div style=""width:500px;"">
                                <p style=""font-size:50px; font-weight:bold;""
                                ></p>
                                <div style=""width:240px; margin: auto;"">
                                    <img src=""images/D79.png"" style= ""width:200px""alt=""img"">
                                </div>
                            </div>","-28","","0","images/D79.png","","","","[""Smooth"",""Rough""]"
"","","","","","html-slider-response","73","229877","0.0-69.0","pjhrpp1co2","NaN","<div style=""width:500px;"">
                                <p style=""font-size:50px; font-weight:bold;""
                                ></p>
                                <div style=""width:240px; margin: auto;"">
                                    <img src=""images/D103.png"" style= ""width:200px""alt=""img"">
                                </div>
                            </div>","37","","0","images/D103.png","","","","[""Smooth"",""Rough""]"
"","","","","","html-slider-response","74","235243","0.0-70.0","pjhrpp1co2","NaN","<div style=""width:500px;"">
                                <p style=""font-size:50px; font-weight:bold;""
                                ></p>
                                <div style=""width:240px; margin: auto;"">
                                    <img src=""images/D105.png"" style= ""width:200px""alt=""img"">
                                </div>
                            </div>","-47","","0","images/D105.png","","","","[""Smooth"",""Rough""]"
"","","","","","html-slider-response","75","237093","0.0-71.0","pjhrpp1co2","NaN","<div style=""width:500px;"">
                                <p style=""font-size:50px; font-weight:bold;""
                                ></p>
                                <div style=""width:240px; margin: auto;"">
                                    <img src=""images/D26.png"" style= ""width:200px""alt=""img"">
                                </div>
                            </div>","153","","0","images/D26.png","","","","[""Smooth"",""Rough""]"
"","","","","","html-slider-response","76","239876","0.0-72.0","pjhrpp1co2","NaN","<div style=""width:500px;"">
                                <p style=""font-size:50px; font-weight:bold;""
                                ></p>
                                <div style=""width:240px; margin: auto;"">
                                    <img src=""images/D74.png"" style= ""width:200px""alt=""img"">
                                </div>
                            </div>","70","","0","images/D74.png","","","","[""Smooth"",""Rough""]"
"","","","","","html-slider-response","77","241910","0.0-73.0","pjhrpp1co2","NaN","<div style=""width:500px;"">
                                <p style=""font-size:50px; font-weight:bold;""
                                ></p>
                                <div style=""width:240px; margin: auto;"">
                                    <img src=""images/D104.png"" style= ""width:200px""alt=""img"">
                                </div>
                            </div>","-19","","0","images/D104.png","","","","[""Smooth"",""Rough""]"
"","","","","","html-slider-response","78","243592","0.0-74.0","pjhrpp1co2","NaN","<div style=""width:500px;"">
                                <p style=""font-size:50px; font-weight:bold;""
                                ></p>
                                <div style=""width:240px; margin: auto;"">
                                    <img src=""images/D8.png"" style= ""width:200px""alt=""img"">
                                </div>
                            </div>","38","","0","images/D8.png","","","","[""Smooth"",""Rough""]"
"","","","","","html-slider-response","79","245544","0.0-75.0","pjhrpp1co2","NaN","<div style=""width:500px;"">
                                <p style=""font-size:50px; font-weight:bold;""
                                ></p>
                                <div style=""width:240px; margin: auto;"">
                                    <img src=""images/D95.png"" style= ""width:200px""alt=""img"">
                                </div>
                            </div>","200","","0","images/D95.png","","","","[""Smooth"",""Rough""]"
"","","","","","html-button-response","80","254814","0.0-76.0","pjhrpp1co2","8768","You have completed the first block of trials out of six. Please click 'Continue' when you are ready proceed.","0","","","","","","",""
"","","","","","html-button-response","81","257265","0.0-77.0","pjhrpp1co2","2449","In the following trials, you will be asked to rate textures on the scale <b>Stripey</b> versus <b>Blobby</b>. Please click 'Continue' when you are ready proceed.","0","","","","","","",""
"","","","","","html-slider-response","82","258711","0.0-78.0","pjhrpp1co2","NaN","<div style=""width:500px;"">
                                <p style=""font-size:50px; font-weight:bold;""
                                ></p>
                                <div style=""width:240px; margin: auto;"">
                                    <img src=""images/D105.png"" style= ""width:200px""alt=""img"">
                                </div>
                            </div>","-200","","0","images/D105.png","","","","[""Stripey"",""Blobby""]"
"","","","","","html-slider-response","83","260927","0.0-79.0","pjhrpp1co2","NaN","<div style=""width:500px;"">
                                <p style=""font-size:50px; font-weight:bold;""
                                ></p>
                                <div style=""width:240px; margin: auto;"">
                                    <img src=""images/D111.png"" style= ""width:200px""alt=""img"">
                                </div>
                            </div>","68","","0","images/D111.png","","","","[""Stripey"",""Blobby""]"
"","","","","","html-slider-response","84","263660","0.0-80.0","pjhrpp1co2","NaN","<div style=""width:500px;"">
                                <p style=""font-size:50px; font-weight:bold;""
                                ></p>
                                <div style=""width:240px; margin: auto;"">
                                    <img src=""images/D102.png"" style= ""width:200px""alt=""img"">
                                </div>
                            </div>","-3","","0","images/D102.png","","","","[""Stripey"",""Blobby""]"
"","","","","","html-slider-response","85","266143","0.0-81.0","pjhrpp1co2","NaN","<div style=""width:500px;"">
                                <p style=""font-size:50px; font-weight:bold;""
                                ></p>
                                <div style=""width:240px; margin: auto;"">
                                    <img src=""images/D18.png"" style= ""width:200px""alt=""img"">
                                </div>
                            </div>","-22","","0","images/D18.png","","","","[""Stripey"",""Blobby""]"
"","","","","","html-slider-response","86","269326","0.0-82.0","pjhrpp1co2","NaN","<div style=""width:500px;"">
                                <p style=""font-size:50px; font-weight:bold;""
                                ></p>
                                <div style=""width:240px; margin: auto;"">
                                    <img src=""images/D56.png"" style= ""width:200px""alt=""img"">
                                </div>
                            </div>","-29","","0","images/D56.png","","","","[""Stripey"",""Blobby""]"
"","","","","","html-slider-response","87","272076","0.0-83.0","pjhrpp1co2","NaN","<div style=""width:500px;"">
                                <p style=""font-size:50px; font-weight:bold;""
                                ></p>
                                <div style=""width:240px; margin: auto;"">
                                    <img src=""images/D57.png"" style= ""width:200px""alt=""img"">
                                </div>
                            </div>","74","","0","images/D57.png","","","","[""Stripey"",""Blobby""]"
"","","","","","html-slider-response","88","274176","0.0-84.0","pjhrpp1co2","NaN","<div style=""width:500px;"">
                                <p style=""font-size:50px; font-weight:bold;""
                                ></p>
                                <div style=""width:240px; margin: auto;"">
                                    <img src=""images/D24.png"" style= ""width:200px""alt=""img"">
                                </div>
                            </div>","100","","0","images/D24.png","","","","[""Stripey"",""Blobby""]"
"","","","","","html-slider-response","89","276343","0.0-85.0","pjhrpp1co2","NaN","<div style=""width:500px;"">
                                <p style=""font-size:50px; font-weight:bold;""
                                ></p>
                                <div style=""width:240px; margin: auto;"">
                                    <img src=""images/D20.png"" style= ""width:200px""alt=""img"">
                                </div>
                            </div>","19","","0","images/D20.png","","","","[""Stripey"",""Blobby""]"
"","","","","","html-slider-response","90","279260","0.0-86.0","pjhrpp1co2","NaN","<div style=""width:500px;"">
                                <p style=""font-size:50px; font-weight:bold;""
                                ></p>
                                <div style=""width:240px; margin: auto;"">
                                    <img src=""images/D95.png"" style= ""width:200px""alt=""img"">
                                </div>
                            </div>","2","","0","images/D95.png","","","","[""Stripey"",""Blobby""]"
"","","","","","html-slider-response","91","281260","0.0-87.0","pjhrpp1co2","NaN","<div style=""width:500px;"">
                                <p style=""font-size:50px; font-weight:bold;""
                                ></p>
                                <div style=""width:240px; margin: auto;"">
                                    <img src=""images/D82.png"" style= ""width:200px""alt=""img"">
                                </div>
                            </div>","1","","0","images/D82.png","","","","[""Stripey"",""Blobby""]"
"","","","","","html-slider-response","92","283809","0.0-88.0","pjhrpp1co2","NaN","<div style=""width:500px;"">
                                <p style=""font-size:50px; font-weight:bold;""
                                ></p>
                                <div style=""width:240px; margin: auto;"">
                                    <img src=""images/D17.png"" style= ""width:200px""alt=""img"">
                                </div>
                            </div>","-191","","0","images/D17.png","","","","[""Stripey"",""Blobby""]"
"","","","","","html-slider-response","93","285526","0.0-89.0","pjhrpp1co2","NaN","<div style=""width:500px;"">
                                <p style=""font-size:50px; font-weight:bold;""
                                ></p>
                                <div style=""width:240px; margin: auto;"">
                                    <img src=""images/D75.png"" style= ""width:200px""alt=""img"">
                                </div>
                            </div>","182","","0","images/D75.png","","","","[""Stripey"",""Blobby""]"
"","","","","","html-slider-response","94","287542","0.0-90.0","pjhrpp1co2","NaN","<div style=""width:500px;"">
                                <p style=""font-size:50px; font-weight:bold;""
                                ></p>
                                <div style=""width:240px; margin: auto;"">
                                    <img src=""images/D9.png"" style= ""width:200px""alt=""img"">
                                </div>
                            </div>","2","","0","images/D9.png","","","","[""Stripey"",""Blobby""]"
"","","","","","html-slider-response","95","290159","0.0-91.0","pjhrpp1co2","NaN","<div style=""width:500px;"">
                                <p style=""font-size:50px; font-weight:bold;""
                                ></p>
                                <div style=""width:240px; margin: auto;"">
                                    <img src=""images/D25.png"" style= ""width:200px""alt=""img"">
                                </div>
                            </div>","192","","0","images/D25.png","","","","[""Stripey"",""Blobby""]"
"","","","","","html-slider-response","96","293293","0.0-92.0","pjhrpp1co2","NaN","<div style=""width:500px;"">
                                <p style=""font-size:50px; font-weight:bold;""
                                ></p>
                                <div style=""width:240px; margin: auto;"">
                                    <img src=""images/D79.png"" style= ""width:200px""alt=""img"">
                                </div>
                            </div>","-194","","0","images/D79.png","","","","[""Stripey"",""Blobby""]"
"","","","","","html-slider-response","97","296076","0.0-93.0","pjhrpp1co2","NaN","<div style=""width:500px;"">
                                <p style=""font-size:50px; font-weight:bold;""
                                ></p>
                                <div style=""width:240px; margin: auto;"">
                                    <img src=""images/D101.png"" style= ""width:200px""alt=""img"">
                                </div>
                            </div>","6","","0","images/D101.png","","","","[""Stripey"",""Blobby""]"
"","","","","","html-slider-response","98","298026","0.0-94.0","pjhrpp1co2","NaN","<div style=""width:500px;"">
                                <p style=""font-size:50px; font-weight:bold;""
                                ></p>
                                <div style=""width:240px; margin: auto;"">
                                    <img src=""images/D106.png"" style= ""width:200px""alt=""img"">
                                </div>
                            </div>","-195","","0","images/D106.png","","","","[""Stripey"",""Blobby""]"
"","","","","","html-slider-response","99","301944","0.0-95.0","pjhrpp1co2","NaN","<div style=""width:500px;"">
                                <p style=""font-size:50px; font-weight:bold;""
                                ></p>
                                <div style=""width:240px; margin: auto;"">
                                    <img src=""images/D52.png"" style= ""width:200px""alt=""img"">
                                </div>
                            </div>","-194","","0","images/D52.png","","","","[""Stripey"",""Blobby""]"
"","","","","","html-slider-response","100","303527","0.0-96.0","pjhrpp1co2","NaN","<div style=""width:500px;"">
                                <p style=""font-size:50px; font-weight:bold;""
                                ></p>
                                <div style=""width:240px; margin: auto;"">
                                    <img src=""images/D103.png"" style= ""width:200px""alt=""img"">
                                </div>
                            </div>","-194","","0","images/D103.png","","","","[""Stripey"",""Blobby""]"
"","","","","","html-slider-response","101","305443","0.0-97.0","pjhrpp1co2","NaN","<div style=""width:500px;"">
                                <p style=""font-size:50px; font-weight:bold;""
                                ></p>
                                <div style=""width:240px; margin: auto;"">
                                    <img src=""images/D14.png"" style= ""width:200px""alt=""img"">
                                </div>
                            </div>","-198","","0","images/D14.png","","","","[""Stripey"",""Blobby""]"
"","","","","","html-slider-response","102","308710","0.0-98.0","pjhrpp1co2","NaN","<div style=""width:500px;"">
                                <p style=""font-size:50px; font-weight:bold;""
                                ></p>
                                <div style=""width:240px; margin: auto;"">
                                    <img src=""images/D19.png"" style= ""width:200px""alt=""img"">
                                </div>
                            </div>","90","","0","images/D19.png","","","","[""Stripey"",""Blobby""]"
"","","","","","html-slider-response","103","310810","0.0-99.0","pjhrpp1co2","NaN","<div style=""width:500px;"">
                                <p style=""font-size:50px; font-weight:bold;""
                                ></p>
                                <div style=""width:240px; margin: auto;"">
                                    <img src=""images/D64.png"" style= ""width:200px""alt=""img"">
                                </div>
                            </div>","-189","","0","images/D64.png","","","","[""Stripey"",""Blobby""]"
"","","","","","html-slider-response","104","313043","0.0-100.0","pjhrpp1co2","NaN","<div style=""width:500px;"">
                                <p style=""font-size:50px; font-weight:bold;""
                                ></p>
                                <div style=""width:240px; margin: auto;"">
                                    <img src=""images/D77.png"" style= ""width:200px""alt=""img"">
                                </div>
                            </div>","-92","","0","images/D77.png","","","","[""Stripey"",""Blobby""]"
"","","","","","html-slider-response","105","315326","0.0-101.0","pjhrpp1co2","NaN","<div style=""width:500px;"">
                                <p style=""font-size:50px; font-weight:bold;""
                                ></p>
                                <div style=""width:240px; margin: auto;"">
                                    <img src=""images/D96.png"" style= ""width:200px""alt=""img"">
                                </div>
                            </div>","-3","","0","images/D96.png","","","","[""Stripey"",""Blobby""]"
"","","","","","html-slider-response","106","316860","0.0-102.0","pjhrpp1co2","NaN","<div style=""width:500px;"">
                                <p style=""font-size:50px; font-weight:bold;""
                                ></p>
                                <div style=""width:240px; margin: auto;"">
                                    <img src=""images/D1.png"" style= ""width:200px""alt=""img"">
                                </div>
                            </div>","-3","","0","images/D1.png","","","","[""Stripey"",""Blobby""]"
"","","","","","html-slider-response","107","319660","0.0-103.0","pjhrpp1co2","NaN","<div style=""width:500px;"">
                                <p style=""font-size:50px; font-weight:bold;""
                                ></p>
                                <div style=""width:240px; margin: auto;"">
                                    <img src=""images/D83.png"" style= ""width:200px""alt=""img"">
                                </div>
                            </div>","-97","","0","images/D83.png","","","","[""Stripey"",""Blobby""]"
"","","","","","html-slider-response","108","322609","0.0-104.0","pjhrpp1co2","NaN","<div style=""width:500px;"">
                                <p style=""font-size:50px; font-weight:bold;""
                                ></p>
                                <div style=""width:240px; margin: auto;"">
                                    <img src=""images/D68.png"" style= ""width:200px""alt=""img"">
                                </div>
                            </div>","-88","","0","images/D68.png","","","","[""Stripey"",""Blobby""]"
"","","","","","html-slider-response","109","325544","0.0-105.0","pjhrpp1co2","NaN","<div style=""width:500px;"">
                                <p style=""font-size:50px; font-weight:bold;""
                                ></p>
                                <div style=""width:240px; margin: auto;"">
                                    <img src=""images/D34.png"" style= ""width:200px""alt=""img"">
                                </div>
                            </div>","75","","0","images/D34.png","","","","[""Stripey"",""Blobby""]"
"","","","","","html-slider-response","110","327843","0.0-106.0","pjhrpp1co2","NaN","<div style=""width:500px;"">
                                <p style=""font-size:50px; font-weight:bold;""
                                ></p>
                                <div style=""width:240px; margin: auto;"">
                                    <img src=""images/D81.png"" style= ""width:200px""alt=""img"">
                                </div>
                            </div>","8","","0","images/D81.png","","","","[""Stripey"",""Blobby""]"
"","","","","","html-slider-response","111","331643","0.0-107.0","pjhrpp1co2","NaN","<div style=""width:500px;"">
                                <p style=""font-size:50px; font-weight:bold;""
                                ></p>
                                <div style=""width:240px; margin: auto;"">
                                    <img src=""images/D8.png"" style= ""width:200px""alt=""img"">
                                </div>
                            </div>","96","","0","images/D8.png","","","","[""Stripey"",""Blobby""]"
"","","","","","html-slider-response","112","334109","0.0-108.0","pjhrpp1co2","NaN","<div style=""width:500px;"">
                                <p style=""font-size:50px; font-weight:bold;""
                                ></p>
                                <div style=""width:240px; margin: auto;"">
                                    <img src=""images/D22.png"" style= ""width:200px""alt=""img"">
                                </div>
                            </div>","2","","0","images/D22.png","","","","[""Stripey"",""Blobby""]"
"","","","","","html-slider-response","113","336294","0.0-109.0","pjhrpp1co2","NaN","<div style=""width:500px;"">
                                <p style=""font-size:50px; font-weight:bold;""
                                ></p>
                                <div style=""width:240px; margin: auto;"">
                                    <img src=""images/D92.png"" style= ""width:200px""alt=""img"">
                                </div>
                            </div>","2","","0","images/D92.png","","","","[""Stripey"",""Blobby""]"
"","","","","","html-slider-response","114","338227","0.0-110.0","pjhrpp1co2","NaN","<div style=""width:500px;"">
                                <p style=""font-size:50px; font-weight:bold;""
                                ></p>
                                <div style=""width:240px; margin: auto;"">
                                    <img src=""images/D51.png"" style= ""width:200px""alt=""img"">
                                </div>
                            </div>","-187","","0","images/D51.png","","","","[""Stripey"",""Blobby""]"
"","","","","","html-slider-response","115","340510","0.0-111.0","pjhrpp1co2","NaN","<div style=""width:500px;"">
                                <p style=""font-size:50px; font-weight:bold;""
                                ></p>
                                <div style=""width:240px; margin: auto;"">
                                    <img src=""images/D76.png"" style= ""width:200px""alt=""img"">
                                </div>
                            </div>","-189","","0","images/D76.png","","","","[""Stripey"",""Blobby""]"
"","","","","","html-slider-response","116","344377","0.0-112.0","pjhrpp1co2","NaN","<div style=""width:500px;"">
                                <p style=""font-size:50px; font-weight:bold;""
                                ></p>
                                <div style=""width:240px; margin: auto;"">
                                    <img src=""images/D84.png"" style= ""width:200px""alt=""img"">
                                </div>
                            </div>","-50","","0","images/D84.png","","","","[""Stripey"",""Blobby""]"
"","","","","","html-slider-response","117","346809","0.0-113.0","pjhrpp1co2","NaN","<div style=""width:500px;"">
                                <p style=""font-size:50px; font-weight:bold;""
                                ></p>
                                <div style=""width:240px; margin: auto;"">
                                    <img src=""images/D35.png"" style= ""width:200px""alt=""img"">
                                </div>
                            </div>","146","","0","images/D35.png","","","","[""Stripey"",""Blobby""]"
"","","","","","html-slider-response","118","348659","0.0-114.0","pjhrpp1co2","NaN","<div style=""width:500px;"">
                                <p style=""font-size:50px; font-weight:bold;""
                                ></p>
                                <div style=""width:240px; margin: auto;"">
                                    <img src=""images/D49.png"" style= ""width:200px""alt=""img"">
                                </div>
                            </div>","-188","","0","images/D49.png","","","","[""Stripey"",""Blobby""]"
"","","","","","html-slider-response","119","351111","0.0-115.0","pjhrpp1co2","NaN","<div style=""width:500px;"">
                                <p style=""font-size:50px; font-weight:bold;""
                                ></p>
                                <div style=""width:240px; margin: auto;"">
                                    <img src=""images/D3.png"" style= ""width:200px""alt=""img"">
                                </div>
                            </div>","-1","","0","images/D3.png","","","","[""Stripey"",""Blobby""]"
"","","","","","html-slider-response","120","353593","0.0-116.0","pjhrpp1co2","NaN","<div style=""width:500px;"">
                                <p style=""font-size:50px; font-weight:bold;""
                                ></p>
                                <div style=""width:240px; margin: auto;"">
                                    <img src=""images/D47.png"" style= ""width:200px""alt=""img"">
                                </div>
                            </div>","-189","","0","images/D47.png","","","","[""Stripey"",""Blobby""]"
"","","","","","html-slider-response","121","355561","0.0-117.0","pjhrpp1co2","NaN","<div style=""width:500px;"">
                                <p style=""font-size:50px; font-weight:bold;""
                                ></p>
                                <div style=""width:240px; margin: auto;"">
                                    <img src=""images/D26.png"" style= ""width:200px""alt=""img"">
                                </div>
                            </div>","4","","0","images/D26.png","","","","[""Stripey"",""Blobby""]"
"","","","","","html-slider-response","122","357294","0.0-118.0","pjhrpp1co2","NaN","<div style=""width:500px;"">
                                <p style=""font-size:50px; font-weight:bold;""
                                ></p>
                                <div style=""width:240px; margin: auto;"">
                                    <img src=""images/D32.png"" style= ""width:200px""alt=""img"">
                                </div>
                            </div>","4","","0","images/D32.png","","","","[""Stripey"",""Blobby""]"
"","","","","","html-slider-response","123","359993","0.0-119.0","pjhrpp1co2","NaN","<div style=""width:500px;"">
                                <p style=""font-size:50px; font-weight:bold;""
                                ></p>
                                <div style=""width:240px; margin: auto;"">
                                    <img src=""images/D87.png"" style= ""width:200px""alt=""img"">
                                </div>
                            </div>","78","","0","images/D87.png","","","","[""Stripey"",""Blobby""]"
"","","","","","html-slider-response","124","361777","0.0-120.0","pjhrpp1co2","NaN","<div style=""width:500px;"">
                                <p style=""font-size:50px; font-weight:bold;""
                                ></p>
                                <div style=""width:240px; margin: auto;"">
                                    <img src=""images/D4.png"" style= ""width:200px""alt=""img"">
                                </div>
                            </div>","6","","0","images/D4.png","","","","[""Stripey"",""Blobby""]"
"","","","","","html-slider-response","125","363293","0.0-121.0","pjhrpp1co2","NaN","<div style=""width:500px;"">
                                <p style=""font-size:50px; font-weight:bold;""
                                ></p>
                                <div style=""width:240px; margin: auto;"">
                                    <img src=""images/D94.png"" style= ""width:200px""alt=""img"">
                                </div>
                            </div>","6","","0","images/D94.png","","","","[""Stripey"",""Blobby""]"
"","","","","","html-slider-response","126","365410","0.0-122.0","pjhrpp1co2","NaN","<div style=""width:500px;"">
                                <p style=""font-size:50px; font-weight:bold;""
                                ></p>
                                <div style=""width:240px; margin: auto;"">
                                    <img src=""images/D46.png"" style= ""width:200px""alt=""img"">
                                </div>
                            </div>","-184","","0","images/D46.png","","","","[""Stripey"",""Blobby""]"
"","","","","","html-slider-response","127","367344","0.0-123.0","pjhrpp1co2","NaN","<div style=""width:500px;"">
                                <p style=""font-size:50px; font-weight:bold;""
                                ></p>
                                <div style=""width:240px; margin: auto;"">
                                    <img src=""images/D36.png"" style= ""width:200px""alt=""img"">
                                </div>
                            </div>","1","","0","images/D36.png","","","","[""Stripey"",""Blobby""]"
"","","","","","html-slider-response","128","369293","0.0-124.0","pjhrpp1co2","NaN","<div style=""width:500px;"">
                                <p style=""font-size:50px; font-weight:bold;""
                                ></p>
                                <div style=""width:240px; margin: auto;"">
                                    <img src=""images/D74.png"" style= ""width:200px""alt=""img"">
                                </div>
                            </div>","176","","0","images/D74.png","","","","[""Stripey"",""Blobby""]"
"","","","","","html-slider-response","129","371410","0.0-125.0","pjhrpp1co2","NaN","<div style=""width:500px;"">
                                <p style=""font-size:50px; font-weight:bold;""
                                ></p>
                                <div style=""width:240px; margin: auto;"">
                                    <img src=""images/D65.png"" style= ""width:200px""alt=""img"">
                                </div>
                            </div>","-189","","0","images/D65.png","","","","[""Stripey"",""Blobby""]"
"","","","","","html-slider-response","130","373493","0.0-126.0","pjhrpp1co2","NaN","<div style=""width:500px;"">
                                <p style=""font-size:50px; font-weight:bold;""
                                ></p>
                                <div style=""width:240px; margin: auto;"">
                                    <img src=""images/D6.png"" style= ""width:200px""alt=""img"">
                                </div>
                            </div>","-194","","0","images/D6.png","","","","[""Stripey"",""Blobby""]"
"","","","","","html-slider-response","131","374927","0.0-127.0","pjhrpp1co2","NaN","<div style=""width:500px;"">
                                <p style=""font-size:50px; font-weight:bold;""
                                ></p>
                                <div style=""width:240px; margin: auto;"">
                                    <img src=""images/D21.png"" style= ""width:200px""alt=""img"">
                                </div>
                            </div>","-194","","0","images/D21.png","","","","[""Stripey"",""Blobby""]"
"","","","","","html-slider-response","132","376776","0.0-128.0","pjhrpp1co2","NaN","<div style=""width:500px;"">
                                <p style=""font-size:50px; font-weight:bold;""
                                ></p>
                                <div style=""width:240px; margin: auto;"">
                                    <img src=""images/D29.png"" style= ""width:200px""alt=""img"">
                                </div>
                            </div>","-1","","0","images/D29.png","","","","[""Stripey"",""Blobby""]"
"","","","","","html-slider-response","133","378560","0.0-129.0","pjhrpp1co2","NaN","<div style=""width:500px;"">
                                <p style=""font-size:50px; font-weight:bold;""
                                ></p>
                                <div style=""width:240px; margin: auto;"">
                                    <img src=""images/D66.png"" style= ""width:200px""alt=""img"">
                                </div>
                            </div>","170","","0","images/D66.png","","","","[""Stripey"",""Blobby""]"
"","","","","","html-slider-response","134","380976","0.0-130.0","pjhrpp1co2","NaN","<div style=""width:500px;"">
                                <p style=""font-size:50px; font-weight:bold;""
                                ></p>
                                <div style=""width:240px; margin: auto;"">
                                    <img src=""images/D104.png"" style= ""width:200px""alt=""img"">
                                </div>
                            </div>","-194","","0","images/D104.png","","","","[""Stripey"",""Blobby""]"
"","","","","","html-slider-response","135","382343","0.0-131.0","pjhrpp1co2","NaN","<div style=""width:500px;"">
                                <p style=""font-size:50px; font-weight:bold;""
                                ></p>
                                <div style=""width:240px; margin: auto;"">
                                    <img src=""images/D16.png"" style= ""width:200px""alt=""img"">
                                </div>
                            </div>","-194","","0","images/D16.png","","","","[""Stripey"",""Blobby""]"
"","","","","","html-slider-response","136","383510","0.0-132.0","pjhrpp1co2","NaN","<div style=""width:500px;"">
                                <p style=""font-size:50px; font-weight:bold;""
                                ></p>
                                <div style=""width:240px; margin: auto;"">
                                    <img src=""images/D85.png"" style= ""width:200px""alt=""img"">
                                </div>
                            </div>","-194","","0","images/D85.png","","","","[""Stripey"",""Blobby""]"
"","","","","","html-slider-response","137","385375","0.0-133.0","pjhrpp1co2","NaN","<div style=""width:500px;"">
                                <p style=""font-size:50px; font-weight:bold;""
                                ></p>
                                <div style=""width:240px; margin: auto;"">
                                    <img src=""images/D37.png"" style= ""width:200px""alt=""img"">
                                </div>
                            </div>","-194","","0","images/D37.png","","","","[""Stripey"",""Blobby""]"
"","","","","","html-slider-response","138","387594","0.0-134.0","pjhrpp1co2","NaN","<div style=""width:500px;"">
                                <p style=""font-size:50px; font-weight:bold;""
                                ></p>
                                <div style=""width:240px; margin: auto;"">
                                    <img src=""images/D48.png"" style= ""width:200px""alt=""img"">
                                </div>
                            </div>","190","","0","images/D48.png","","","","[""Stripey"",""Blobby""]"
"","","","","","html-slider-response","139","390343","0.0-135.0","pjhrpp1co2","NaN","<div style=""width:500px;"">
                                <p style=""font-size:50px; font-weight:bold;""
                                ></p>
                                <div style=""width:240px; margin: auto;"">
                                    <img src=""images/D55.png"" style= ""width:200px""alt=""img"">
                                </div>
                            </div>","-74","","0","images/D55.png","","","","[""Stripey"",""Blobby""]"
"","","","","","html-slider-response","140","392092","0.0-136.0","pjhrpp1co2","NaN","<div style=""width:500px;"">
                                <p style=""font-size:50px; font-weight:bold;""
                                ></p>
                                <div style=""width:240px; margin: auto;"">
                                    <img src=""images/D78.png"" style= ""width:200px""alt=""img"">
                                </div>
                            </div>","-90","","0","images/D78.png","","","","[""Stripey"",""Blobby""]"
"","","","","","html-slider-response","141","393727","0.0-137.0","pjhrpp1co2","NaN","<div style=""width:500px;"">
                                <p style=""font-size:50px; font-weight:bold;""
                                ></p>
                                <div style=""width:240px; margin: auto;"">
                                    <img src=""images/D11.png"" style= ""width:200px""alt=""img"">
                                </div>
                            </div>","-90","","0","images/D11.png","","","","[""Stripey"",""Blobby""]"
"","","","","","html-slider-response","142","395026","0.0-138.0","pjhrpp1co2","NaN","<div style=""width:500px;"">
                                <p style=""font-size:50px; font-weight:bold;""
                                ></p>
                                <div style=""width:240px; margin: auto;"">
                                    <img src=""images/D80.png"" style= ""width:200px""alt=""img"">
                                </div>
                            </div>","-90","","0","images/D80.png","","","","[""Stripey"",""Blobby""]"
"","","","","","html-slider-response","143","396244","0.0-139.0","pjhrpp1co2","NaN","<div style=""width:500px;"">
                                <p style=""font-size:50px; font-weight:bold;""
                                ></p>
                                <div style=""width:240px; margin: auto;"">
                                    <img src=""images/D53.png"" style= ""width:200px""alt=""img"">
                                </div>
                            </div>","-90","","0","images/D53.png","","","","[""Stripey"",""Blobby""]"
"","","","","","html-button-response","144","399032","0.0-140.0","pjhrpp1co2","2285","You have completed the second block of trials out of six. Please click 'Continue' when you are ready proceed.","0","","","","","","",""
"","","","","","html-button-response","145","402432","0.0-141.0","pjhrpp1co2","3398","In the following trials, you will be asked to rate textures on the scale <b>Soft</b> versus <b>Hard</b>. Please click 'Continue' when you are ready proceed.","0","","","","","","",""
"","","","","","html-slider-response","146","404442","0.0-142.0","pjhrpp1co2","NaN","<div style=""width:500px;"">
                                <p style=""font-size:50px; font-weight:bold;""
                                ></p>
                                <div style=""width:240px; margin: auto;"">
                                    <img src=""images/D24.png"" style= ""width:200px""alt=""img"">
                                </div>
                            </div>","21","","0","images/D24.png","","","","[""Hard"",""Soft""]"
"","","","","","html-slider-response","147","406443","0.0-143.0","pjhrpp1co2","NaN","<div style=""width:500px;"">
                                <p style=""font-size:50px; font-weight:bold;""
                                ></p>
                                <div style=""width:240px; margin: auto;"">
                                    <img src=""images/D96.png"" style= ""width:200px""alt=""img"">
                                </div>
                            </div>","-195","","0","images/D96.png","","","","[""Hard"",""Soft""]"
"","","","","","html-slider-response","148","410027","0.0-144.0","pjhrpp1co2","NaN","<div style=""width:500px;"">
                                <p style=""font-size:50px; font-weight:bold;""
                                ></p>
                                <div style=""width:240px; margin: auto;"">
                                    <img src=""images/D111.png"" style= ""width:200px""alt=""img"">
                                </div>
                            </div>","58","","0","images/D111.png","","","","[""Hard"",""Soft""]"
"","","","","","html-slider-response","149","412510","0.0-145.0","pjhrpp1co2","NaN","<div style=""width:500px;"">
                                <p style=""font-size:50px; font-weight:bold;""
                                ></p>
                                <div style=""width:240px; margin: auto;"">
                                    <img src=""images/D75.png"" style= ""width:200px""alt=""img"">
                                </div>
                            </div>","-67","","0","images/D75.png","","","","[""Hard"",""Soft""]"
"","","","","","html-slider-response","150","416127","0.0-146.0","pjhrpp1co2","NaN","<div style=""width:500px;"">
                                <p style=""font-size:50px; font-weight:bold;""
                                ></p>
                                <div style=""width:240px; margin: auto;"">
                                    <img src=""images/D51.png"" style= ""width:200px""alt=""img"">
                                </div>
                            </div>","0","","0","images/D51.png","","","","[""Hard"",""Soft""]"
"","","","","","html-slider-response","151","418226","0.0-147.0","pjhrpp1co2","NaN","<div style=""width:500px;"">
                                <p style=""font-size:50px; font-weight:bold;""
                                ></p>
                                <div style=""width:240px; margin: auto;"">
                                    <img src=""images/D80.png"" style= ""width:200px""alt=""img"">
                                </div>
                            </div>","24","","0","images/D80.png","","","","[""Hard"",""Soft""]"
"","","","","","html-slider-response","152","420061","0.0-148.0","pjhrpp1co2","NaN","<div style=""width:500px;"">
                                <p style=""font-size:50px; font-weight:bold;""
                                ></p>
                                <div style=""width:240px; margin: auto;"">
                                    <img src=""images/D53.png"" style= ""width:200px""alt=""img"">
                                </div>
                            </div>","31","","0","images/D53.png","","","","[""Hard"",""Soft""]"
"","","","","","html-slider-response","153","421776","0.0-149.0","pjhrpp1co2","NaN","<div style=""width:500px;"">
                                <p style=""font-size:50px; font-weight:bold;""
                                ></p>
                                <div style=""width:240px; margin: auto;"">
                                    <img src=""images/D17.png"" style= ""width:200px""alt=""img"">
                                </div>
                            </div>","31","","0","images/D17.png","","","","[""Hard"",""Soft""]"
"","","","","","html-slider-response","154","424276","0.0-150.0","pjhrpp1co2","NaN","<div style=""width:500px;"">
                                <p style=""font-size:50px; font-weight:bold;""
                                ></p>
                                <div style=""width:240px; margin: auto;"">
                                    <img src=""images/D94.png"" style= ""width:200px""alt=""img"">
                                </div>
                            </div>","-198","","0","images/D94.png","","","","[""Hard"",""Soft""]"
"","","","","","html-slider-response","155","428043","0.0-151.0","pjhrpp1co2","NaN","<div style=""width:500px;"">
                                <p style=""font-size:50px; font-weight:bold;""
                                ></p>
                                <div style=""width:240px; margin: auto;"">
                                    <img src=""images/D49.png"" style= ""width:200px""alt=""img"">
                                </div>
                            </div>","-86","","0","images/D49.png","","","","[""Hard"",""Soft""]"
"","","","","","html-slider-response","156","430193","0.0-152.0","pjhrpp1co2","NaN","<div style=""width:500px;"">
                                <p style=""font-size:50px; font-weight:bold;""
                                ></p>
                                <div style=""width:240px; margin: auto;"">
                                    <img src=""images/D47.png"" style= ""width:200px""alt=""img"">
                                </div>
                            </div>","5","","0","images/D47.png","","","","[""Hard"",""Soft""]"
"","","","","","html-slider-response","157","431993","0.0-153.0","pjhrpp1co2","NaN","<div style=""width:500px;"">
                                <p style=""font-size:50px; font-weight:bold;""
                                ></p>
                                <div style=""width:240px; margin: auto;"">
                                    <img src=""images/D68.png"" style= ""width:200px""alt=""img"">
                                </div>
                            </div>","5","","0","images/D68.png","","","","[""Hard"",""Soft""]"
"","","","","","html-slider-response","158","433544","0.0-154.0","pjhrpp1co2","NaN","<div style=""width:500px;"">
                                <p style=""font-size:50px; font-weight:bold;""
                                ></p>
                                <div style=""width:240px; margin: auto;"">
                                    <img src=""images/D48.png"" style= ""width:200px""alt=""img"">
                                </div>
                            </div>","5","","0","images/D48.png","","","","[""Hard"",""Soft""]"
"","","","","","html-slider-response","159","435594","0.0-155.0","pjhrpp1co2","NaN","<div style=""width:500px;"">
                                <p style=""font-size:50px; font-weight:bold;""
                                ></p>
                                <div style=""width:240px; margin: auto;"">
                                    <img src=""images/D29.png"" style= ""width:200px""alt=""img"">
                                </div>
                            </div>","47","","0","images/D29.png","","","","[""Hard"",""Soft""]"
"","","","","","html-slider-response","160","439359","0.0-156.0","pjhrpp1co2","NaN","<div style=""width:500px;"">
                                <p style=""font-size:50px; font-weight:bold;""
                                ></p>
                                <div style=""width:240px; margin: auto;"">
                                    <img src=""images/D3.png"" style= ""width:200px""alt=""img"">
                                </div>
                            </div>","-48","","0","images/D3.png","","","","[""Hard"",""Soft""]"
"","","","","","html-slider-response","161","441327","0.0-157.0","pjhrpp1co2","NaN","<div style=""width:500px;"">
                                <p style=""font-size:50px; font-weight:bold;""
                                ></p>
                                <div style=""width:240px; margin: auto;"">
                                    <img src=""images/D102.png"" style= ""width:200px""alt=""img"">
                                </div>
                            </div>","-61","","0","images/D102.png","","","","[""Hard"",""Soft""]"
"","","","","","html-slider-response","162","444327","0.0-158.0","pjhrpp1co2","NaN","<div style=""width:500px;"">
                                <p style=""font-size:50px; font-weight:bold;""
                                ></p>
                                <div style=""width:240px; margin: auto;"">
                                    <img src=""images/D18.png"" style= ""width:200px""alt=""img"">
                                </div>
                            </div>","-54","","0","images/D18.png","","","","[""Hard"",""Soft""]"
"","","","","","html-slider-response","163","446194","0.0-159.0","pjhrpp1co2","NaN","<div style=""width:500px;"">
                                <p style=""font-size:50px; font-weight:bold;""
                                ></p>
                                <div style=""width:240px; margin: auto;"">
                                    <img src=""images/D32.png"" style= ""width:200px""alt=""img"">
                                </div>
                            </div>","116","","0","images/D32.png","","","","[""Hard"",""Soft""]"
"","","","","","html-slider-response","164","448194","0.0-160.0","pjhrpp1co2","NaN","<div style=""width:500px;"">
                                <p style=""font-size:50px; font-weight:bold;""
                                ></p>
                                <div style=""width:240px; margin: auto;"">
                                    <img src=""images/D11.png"" style= ""width:200px""alt=""img"">
                                </div>
                            </div>","113","","0","images/D11.png","","","","[""Hard"",""Soft""]"
"","","","","","html-slider-response","165","450043","0.0-161.0","pjhrpp1co2","NaN","<div style=""width:500px;"">
                                <p style=""font-size:50px; font-weight:bold;""
                                ></p>
                                <div style=""width:240px; margin: auto;"">
                                    <img src=""images/D65.png"" style= ""width:200px""alt=""img"">
                                </div>
                            </div>","-62","","0","images/D65.png","","","","[""Hard"",""Soft""]"
"","","","","","html-slider-response","166","451343","0.0-162.0","pjhrpp1co2","NaN","<div style=""width:500px;"">
                                <p style=""font-size:50px; font-weight:bold;""
                                ></p>
                                <div style=""width:240px; margin: auto;"">
                                    <img src=""images/D52.png"" style= ""width:200px""alt=""img"">
                                </div>
                            </div>","-62","","0","images/D52.png","","","","[""Hard"",""Soft""]"
"","","","","","html-slider-response","167","452593","0.0-163.0","pjhrpp1co2","NaN","<div style=""width:500px;"">
                                <p style=""font-size:50px; font-weight:bold;""
                                ></p>
                                <div style=""width:240px; margin: auto;"">
                                    <img src=""images/D87.png"" style= ""width:200px""alt=""img"">
                                </div>
                            </div>","-62","","0","images/D87.png","","","","[""Hard"",""Soft""]"
"","","","","","html-slider-response","168","455026","0.0-164.0","pjhrpp1co2","NaN","<div style=""width:500px;"">
                                <p style=""font-size:50px; font-weight:bold;""
                                ></p>
                                <div style=""width:240px; margin: auto;"">
                                    <img src=""images/D78.png"" style= ""width:200px""alt=""img"">
                                </div>
                            </div>","59","","0","images/D78.png","","","","[""Hard"",""Soft""]"
"","","","","","html-slider-response","169","456526","0.0-165.0","pjhrpp1co2","NaN","<div style=""width:500px;"">
                                <p style=""font-size:50px; font-weight:bold;""
                                ></p>
                                <div style=""width:240px; margin: auto;"">
                                    <img src=""images/D4.png"" style= ""width:200px""alt=""img"">
                                </div>
                            </div>","66","","0","images/D4.png","","","","[""Hard"",""Soft""]"
"","","","","","html-slider-response","170","459059","0.0-166.0","pjhrpp1co2","NaN","<div style=""width:500px;"">
                                <p style=""font-size:50px; font-weight:bold;""
                                ></p>
                                <div style=""width:240px; margin: auto;"">
                                    <img src=""images/D66.png"" style= ""width:200px""alt=""img"">
                                </div>
                            </div>","-34","","0","images/D66.png","","","","[""Hard"",""Soft""]"
"","","","","","html-slider-response","171","461026","0.0-167.0","pjhrpp1co2","NaN","<div style=""width:500px;"">
                                <p style=""font-size:50px; font-weight:bold;""
                                ></p>
                                <div style=""width:240px; margin: auto;"">
                                    <img src=""images/D36.png"" style= ""width:200px""alt=""img"">
                                </div>
                            </div>","-74","","0","images/D36.png","","","","[""Hard"",""Soft""]"
"","","","","","html-slider-response","172","463077","0.0-168.0","pjhrpp1co2","NaN","<div style=""width:500px;"">
                                <p style=""font-size:50px; font-weight:bold;""
                                ></p>
                                <div style=""width:240px; margin: auto;"">
                                    <img src=""images/D37.png"" style= ""width:200px""alt=""img"">
                                </div>
                            </div>","104","","0","images/D37.png","","","","[""Hard"",""Soft""]"
"","","","","","html-slider-response","173","464892","0.0-169.0","pjhrpp1co2","NaN","<div style=""width:500px;"">
                                <p style=""font-size:50px; font-weight:bold;""
                                ></p>
                                <div style=""width:240px; margin: auto;"">
                                    <img src=""images/D84.png"" style= ""width:200px""alt=""img"">
                                </div>
                            </div>","142","","0","images/D84.png","","","","[""Hard"",""Soft""]"
"","","","","","html-slider-response","174","466777","0.0-170.0","pjhrpp1co2","NaN","<div style=""width:500px;"">
                                <p style=""font-size:50px; font-weight:bold;""
                                ></p>
                                <div style=""width:240px; margin: auto;"">
                                    <img src=""images/D22.png"" style= ""width:200px""alt=""img"">
                                </div>
                            </div>","-75","","0","images/D22.png","","","","[""Hard"",""Soft""]"
"","","","","","html-slider-response","175","468360","0.0-171.0","pjhrpp1co2","NaN","<div style=""width:500px;"">
                                <p style=""font-size:50px; font-weight:bold;""
                                ></p>
                                <div style=""width:240px; margin: auto;"">
                                    <img src=""images/D76.png"" style= ""width:200px""alt=""img"">
                                </div>
                            </div>","-103","","0","images/D76.png","","","","[""Hard"",""Soft""]"
"","","","","","html-slider-response","176","470111","0.0-172.0","pjhrpp1co2","NaN","<div style=""width:500px;"">
                                <p style=""font-size:50px; font-weight:bold;""
                                ></p>
                                <div style=""width:240px; margin: auto;"">
                                    <img src=""images/D35.png"" style= ""width:200px""alt=""img"">
                                </div>
                            </div>","-116","","0","images/D35.png","","","","[""Hard"",""Soft""]"
"","","","","","html-slider-response","177","471728","0.0-173.0","pjhrpp1co2","NaN","<div style=""width:500px;"">
                                <p style=""font-size:50px; font-weight:bold;""
                                ></p>
                                <div style=""width:240px; margin: auto;"">
                                    <img src=""images/D83.png"" style= ""width:200px""alt=""img"">
                                </div>
                            </div>","-130","","0","images/D83.png","","","","[""Hard"",""Soft""]"
"","","","","","html-slider-response","178","473077","0.0-174.0","pjhrpp1co2","NaN","<div style=""width:500px;"">
                                <p style=""font-size:50px; font-weight:bold;""
                                ></p>
                                <div style=""width:240px; margin: auto;"">
                                    <img src=""images/D46.png"" style= ""width:200px""alt=""img"">
                                </div>
                            </div>","-130","","0","images/D46.png","","","","[""Hard"",""Soft""]"
"","","","","","html-slider-response","179","474526","0.0-175.0","pjhrpp1co2","NaN","<div style=""width:500px;"">
                                <p style=""font-size:50px; font-weight:bold;""
                                ></p>
                                <div style=""width:240px; margin: auto;"">
                                    <img src=""images/D20.png"" style= ""width:200px""alt=""img"">
                                </div>
                            </div>","-150","","0","images/D20.png","","","","[""Hard"",""Soft""]"
"","","","","","html-slider-response","180","476426","0.0-176.0","pjhrpp1co2","NaN","<div style=""width:500px;"">
                                <p style=""font-size:50px; font-weight:bold;""
                                ></p>
                                <div style=""width:240px; margin: auto;"">
                                    <img src=""images/D92.png"" style= ""width:200px""alt=""img"">
                                </div>
                            </div>","160","","0","images/D92.png","","","","[""Hard"",""Soft""]"
"","","","","","html-slider-response","181","477976","0.0-177.0","pjhrpp1co2","NaN","<div style=""width:500px;"">
                                <p style=""font-size:50px; font-weight:bold;""
                                ></p>
                                <div style=""width:240px; margin: auto;"">
                                    <img src=""images/D9.png"" style= ""width:200px""alt=""img"">
                                </div>
                            </div>","151","","0","images/D9.png","","","","[""Hard"",""Soft""]"
"","","","","","html-slider-response","182","480043","0.0-178.0","pjhrpp1co2","NaN","<div style=""width:500px;"">
                                <p style=""font-size:50px; font-weight:bold;""
                                ></p>
                                <div style=""width:240px; margin: auto;"">
                                    <img src=""images/D34.png"" style= ""width:200px""alt=""img"">
                                </div>
                            </div>","-122","","0","images/D34.png","","","","[""Hard"",""Soft""]"
"","","","","","html-slider-response","183","483526","0.0-179.0","pjhrpp1co2","NaN","<div style=""width:500px;"">
                                <p style=""font-size:50px; font-weight:bold;""
                                ></p>
                                <div style=""width:240px; margin: auto;"">
                                    <img src=""images/D101.png"" style= ""width:200px""alt=""img"">
                                </div>
                            </div>","-119","","0","images/D101.png","","","","[""Hard"",""Soft""]"
"","","","","","html-slider-response","184","485726","0.0-180.0","pjhrpp1co2","NaN","<div style=""width:500px;"">
                                <p style=""font-size:50px; font-weight:bold;""
                                ></p>
                                <div style=""width:240px; margin: auto;"">
                                    <img src=""images/D77.png"" style= ""width:200px""alt=""img"">
                                </div>
                            </div>","111","","0","images/D77.png","","","","[""Hard"",""Soft""]"
"","","","","","html-slider-response","185","490244","0.0-181.0","pjhrpp1co2","NaN","<div style=""width:500px;"">
                                <p style=""font-size:50px; font-weight:bold;""
                                ></p>
                                <div style=""width:240px; margin: auto;"">
                                    <img src=""images/D106.png"" style= ""width:200px""alt=""img"">
                                </div>
                            </div>","-118","","0","images/D106.png","","","","[""Hard"",""Soft""]"
"","","","","","html-slider-response","186","492143","0.0-182.0","pjhrpp1co2","NaN","<div style=""width:500px;"">
                                <p style=""font-size:50px; font-weight:bold;""
                                ></p>
                                <div style=""width:240px; margin: auto;"">
                                    <img src=""images/D55.png"" style= ""width:200px""alt=""img"">
                                </div>
                            </div>","-118","","0","images/D55.png","","","","[""Hard"",""Soft""]"
"","","","","","html-slider-response","187","493477","0.0-183.0","pjhrpp1co2","NaN","<div style=""width:500px;"">
                                <p style=""font-size:50px; font-weight:bold;""
                                ></p>
                                <div style=""width:240px; margin: auto;"">
                                    <img src=""images/D16.png"" style= ""width:200px""alt=""img"">
