"success","timeout","failed_images","failed_audio","failed_video","trial_type","trial_index","time_elapsed","internal_node_id","subject_id","rt","stimulus","response","question_order","slider_start","image_path","practiceTrial","practiceTrialNum","correct","slider_labels"
"true","false","[]","[]","[]","preload","0","22","0.0-0.0","u1e2yt2s9f","","","","","","","","","",""
"","","","","","html-button-response","1","820","0.0-1.0","u1e2yt2s9f","797","<div style='text-align:center; font-size:20px; line-height:25px; width: 1200px;'>
                Welcome to our experiment! <br>
                <br>At the bottom of this screen, you will see a button that says 'Begin Experiment.
                <br>Please only click that button when you are ready to complete the 25 minute experiment in one sitting. <br>
                <br> Once you click that button, it will not be possible to restart the experiment. <br><br>","0","","","","","","",""
"true","","","","","fullscreen","2","2554","0.0-2.0","u1e2yt2s9f","733","","","","","","","","",""
"","","","","","survey-multi-select","3","7753","0.0-3.0","u1e2yt2s9f","5197","","{""Consent"":[""<strong>I consent</strong>""]}","[0]","","","","","",""
"","","","","","html-button-response","4","17486","0.0-4.0","u1e2yt2s9f","9731","Welcome! <p> This experiment involves two parts: demographic information, followed by the experimental task.<p> It will take about 25 minutes to complete both parts.","0","","","","","","",""
"","","","","","survey-text","5","27154","0.0-5.0","u1e2yt2s9f","9667","","{""Age"":""18"",""Gender"":""female"",""Race/ethnicity"":""white""}","","","","","","",""
"","","","","","html-slider-response","6","29853","0.0-6.0","u1e2yt2s9f","2698","
                <div style='text-align:center; height: auto; margin-left=-100px; margin-bottom: -20px; font-size:20px; line-height:5px; width: 1200px;'>
                    <br>During this experiment, you will see a series of textures, one at a time, like the ones below: 
                </div>
                    <br>
                    <br>
                    <img src=""anchoring_visual_textures.png"" alt=""img"" style=""max-width:1200px; margin-left: -10px;"">
                </div>
                <div style=""clear: both;""></div>
                </div>
                    <div style='text-align:center; margin-left=-100px; font-size:20px; line-height:20px; width: 1200px; margin-top: -50px;'>
                    
                    <br> For each texture, you will be asked to rate where you think it falls on each of the response scales with the following endpoints:
                    </div>
                            <div style=""text-align: center; width: 1400px; "">
                                <p style=""font-size:20px; line-height:5px; ""><b>Blobby</b> versus <b>Stripey</b></p>
                                <p style=""font-size:20px; line-height:5px; ""><b>Rounded</b> versus <b>Rectangular</b></p>
                                <p style=""font-size:20px;line-height:5px;""><b>Coarse</b> versus <b>Fine</b></p>
                                <p style=""font-size:20px;line-height:5px; ""><b>Rough</b> versus <b>Smooth</b></p>
                                <p style=""font-size:20px;line-height:5px; ""><b>Random</b> versus <b>Non-Random</b></p>
                                <p style=""font-size:20px;line-height:5px;""><b>Hard</b> versus <b>Soft</b></p>
                            </div>
                            <div style='text-align:center; font-size:20px; line-height:20px; width: 1400px;'>
                    
                    Each trial will include one texture and one response scale. You will be asked to make your rating by sliding the cursor along a slider response scale like the one below.
                    <br><br> Before beginning, please look at the textures and scales. For each scale, think about the texture you associate most with the left endpoint. When you see that texture for that response scale, please click near the left of the scale.
                    <br><br> Now, please think about the texture you associate most with the right endpoint of each scale. When you see that texture for that response scale, please click near the right of the scale. 
                    <br><br> If you think a texture is not strongly associated with either endpoint of the scale, please click near the midpoint of the scale. Please use the full range of the scale. 
                    <br><br> You will be asked to rate each texture for a given scale before moving on to the next scale.
                    <br><br> Please press the 'Continue' button for instructions on how to use the slider.                     <br><br>
                ","null","","0","visual_textures_anchoring.png","true","","",""
"","","","","","html-button-response","7","44286","0.0-7.0","u1e2yt2s9f","14432","<div style=""width:1200px; margin-top:-150px;""><p style=""text-align:center; font-size:24px;"">To move the slider, click and drag your cursor to the location of the scale where you would like to make your rating and then let go. <br><br> When you let go of the slider, your response will be recorded and the next trial will begin. <br><br><br>
                We are interested in your initial impressions of each texture and scale, so please go with your first intuition. <br><br>
                Before you begin the experiment, there will be four training trials for you to practice using the scale. <br><br><br><br></div>
                <div style=""width:1200px;""><p style=""text-align:center; font-size:20px;"">When you are ready to start the training trials, please click ""Continue"".</p></div>","0","","","","","","",""
"","","","","","html-slider-response","8","45664","0.0-8.0-0.0","u1e2yt2s9f","NaN","<div style=""width:500px;"">
                                <p style=""font-size:25px;"">Please move the slider all the way to the <br> right endpoint of the scale</p>

                                </div>
                            </div>","94","","0","","true","0","false",""
"","","","","","html-button-response","9","47086","0.0-8.0-1.0","u1e2yt2s9f","919","<p align='center'><b>Not quite!</b> The slider was not placed near the instructed locattion. Click on 'Continue' to try again. </p>","0","","","","","","",""
"","","","","","html-slider-response","10","47931","0.0-8.1-0.1","u1e2yt2s9f","NaN","<div style=""width:500px;"">
                                <p style=""font-size:25px;"">Please move the slider all the way to the <br> right endpoint of the scale</p>

                                </div>
                            </div>","200","","0","","true","0","true",""
"","","","","","html-button-response","11","49119","0.0-8.1-1.1","u1e2yt2s9f","686","<p align='center'><b>Good job!</b> Click on 'Continue' to proceed.</p>","0","","","","","","",""
"","","","","","html-slider-response","12","50147","0.0-9.0-0.0","u1e2yt2s9f","NaN","<div style=""width:500px;"">
                                <p style=""font-size:25px;"">Please move the slider all the way to the <br> left endpoint of the scale</p>

                                </div>
                            </div>","-200","","0","","true","1","true",""
"","","","","","html-button-response","13","51270","0.0-9.0-1.0","u1e2yt2s9f","622","<p align='center'><b>Good job!</b> Click on 'Continue' to proceed.</p>","0","","","","","","",""
"","","","","","html-slider-response","14","52530","0.0-10.0-0.0","u1e2yt2s9f","NaN","<div style=""width:500px;"">
                                <p style=""font-size:25px;"">Please move the slider halfway between the center and right endpoint of the scale</p>

                                </div>
                            </div>","106","","0","","true","2","true",""
"","","","","","html-button-response","15","53619","0.0-10.0-1.0","u1e2yt2s9f","587","<p align='center'><b>Good job!</b> Click on 'Continue' to proceed.</p>","0","","","","","","",""
"","","","","","html-slider-response","16","55281","0.0-11.0-0.0","u1e2yt2s9f","NaN","<div style=""width:500px;"">
                                <p style=""font-size:25px;"">Please move the slider halfway between the center and left endpoint of the scale</p>

                                </div>
                            </div>","-99","","0","","true","3","true",""
"","","","","","html-button-response","17","57052","0.0-11.0-1.0","u1e2yt2s9f","1269","<p align='center'><b>Good job!</b> Click on 'Continue' to proceed.</p>","0","","","","","","",""
"","","","","","html-button-response","18","58186","0.0-12.0","u1e2yt2s9f","1133","<div style=""width:800px; margin-top:-300px;""><p style=""text-align:center; font-size:22px; line-height:25px;""""> Great job! You've completed the practice trials.</div>
                     <div style=""width:800px; margin-top:-20px;""><p style=""text-align:center""><br><br> In the following trials, you will be asked to rate textures on each scale one-by-one. <br> You will be given opportunities to take breaks when you have completed each block of trials. There are six total blocks of trials. <br><br> Please click continue to begin the main task.<br><br><br> </div>","0","","","","","","",""
"","","","","","html-button-response","19","58952","0.0-13.0","u1e2yt2s9f","766","In the following trials, you will be asked to rate textures on the scale <b>Random</b> versus <b>Non-Random</b>. Please click 'Continue' when you are ready proceed.","0","","","","","","",""
"","","","","","html-slider-response","20","60663","0.0-14.0","u1e2yt2s9f","NaN","<div style=""width:500px;"">
                                <p style=""font-size:50px; font-weight:bold;""
                                ></p>
                                <div style=""width:240px; margin: auto;"">
                                    <img src=""images/D85.png"" style= ""width:200px""alt=""img"">
                                </div>
                            </div>","-154","","0","images/D85.png","","","","[""Random"",""Non-random""]"
"","","","","","html-slider-response","21","61947","0.0-15.0","u1e2yt2s9f","NaN","<div style=""width:500px;"">
                                <p style=""font-size:50px; font-weight:bold;""
                                ></p>
                                <div style=""width:240px; margin: auto;"">
                                    <img src=""images/D101.png"" style= ""width:200px""alt=""img"">
                                </div>
                            </div>","79","","0","images/D101.png","","","","[""Random"",""Non-random""]"
"","","","","","html-slider-response","22","72348","0.0-16.0","u1e2yt2s9f","NaN","<div style=""width:500px;"">
                                <p style=""font-size:50px; font-weight:bold;""
                                ></p>
                                <div style=""width:240px; margin: auto;"">
                                    <img src=""images/D1.png"" style= ""width:200px""alt=""img"">
                                </div>
                            </div>","65","","0","images/D1.png","","","","[""Random"",""Non-random""]"
"","","","","","html-slider-response","23","73799","0.0-17.0","u1e2yt2s9f","NaN","<div style=""width:500px;"">
                                <p style=""font-size:50px; font-weight:bold;""
                                ></p>
                                <div style=""width:240px; margin: auto;"">
                                    <img src=""images/D95.png"" style= ""width:200px""alt=""img"">
                                </div>
                            </div>","-59","","0","images/D95.png","","","","[""Random"",""Non-random""]"
"","","","","","html-slider-response","24","75031","0.0-18.0","u1e2yt2s9f","NaN","<div style=""width:500px;"">
                                <p style=""font-size:50px; font-weight:bold;""
                                ></p>
                                <div style=""width:240px; margin: auto;"">
                                    <img src=""images/D14.png"" style= ""width:200px""alt=""img"">
                                </div>
                            </div>","63","","0","images/D14.png","","","","[""Random"",""Non-random""]"
"","","","","","html-slider-response","25","76097","0.0-19.0","u1e2yt2s9f","NaN","<div style=""width:500px;"">
                                <p style=""font-size:50px; font-weight:bold;""
                                ></p>
                                <div style=""width:240px; margin: auto;"">
                                    <img src=""images/D37.png"" style= ""width:200px""alt=""img"">
                                </div>
                            </div>","-33","","0","images/D37.png","","","","[""Random"",""Non-random""]"
"","","","","","html-slider-response","26","77114","0.0-20.0","u1e2yt2s9f","NaN","<div style=""width:500px;"">
                                <p style=""font-size:50px; font-weight:bold;""
                                ></p>
                                <div style=""width:240px; margin: auto;"">
                                    <img src=""images/D81.png"" style= ""width:200px""alt=""img"">
                                </div>
                            </div>","99","","0","images/D81.png","","","","[""Random"",""Non-random""]"
"","","","","","html-slider-response","27","78264","0.0-21.0","u1e2yt2s9f","NaN","<div style=""width:500px;"">
                                <p style=""font-size:50px; font-weight:bold;""
                                ></p>
                                <div style=""width:240px; margin: auto;"">
                                    <img src=""images/D82.png"" style= ""width:200px""alt=""img"">
                                </div>
                            </div>","-60","","0","images/D82.png","","","","[""Random"",""Non-random""]"
"","","","","","html-slider-response","28","79232","0.0-22.0","u1e2yt2s9f","NaN","<div style=""width:500px;"">
                                <p style=""font-size:50px; font-weight:bold;""
                                ></p>
                                <div style=""width:240px; margin: auto;"">
                                    <img src=""images/D76.png"" style= ""width:200px""alt=""img"">
                                </div>
                            </div>","39","","0","images/D76.png","","","","[""Random"",""Non-random""]"
"","","","","","html-slider-response","29","80163","0.0-23.0","u1e2yt2s9f","NaN","<div style=""width:500px;"">
                                <p style=""font-size:50px; font-weight:bold;""
                                ></p>
                                <div style=""width:240px; margin: auto;"">
                                    <img src=""images/D49.png"" style= ""width:200px""alt=""img"">
                                </div>
                            </div>","-88","","0","images/D49.png","","","","[""Random"",""Non-random""]"
"","","","","","html-slider-response","30","81981","0.0-24.0","u1e2yt2s9f","NaN","<div style=""width:500px;"">
                                <p style=""font-size:50px; font-weight:bold;""
                                ></p>
                                <div style=""width:240px; margin: auto;"">
                                    <img src=""images/D46.png"" style= ""width:200px""alt=""img"">
                                </div>
                            </div>","85","","0","images/D46.png","","","","[""Random"",""Non-random""]"
"","","","","","html-slider-response","31","83864","0.0-25.0","u1e2yt2s9f","NaN","<div style=""width:500px;"">
                                <p style=""font-size:50px; font-weight:bold;""
                                ></p>
                                <div style=""width:240px; margin: auto;"">
                                    <img src=""images/D51.png"" style= ""width:200px""alt=""img"">
                                </div>
                            </div>","-112","","0","images/D51.png","","","","[""Random"",""Non-random""]"
"","","","","","html-slider-response","32","85147","0.0-26.0","u1e2yt2s9f","NaN","<div style=""width:500px;"">
                                <p style=""font-size:50px; font-weight:bold;""
                                ></p>
                                <div style=""width:240px; margin: auto;"">
                                    <img src=""images/D8.png"" style= ""width:200px""alt=""img"">
                                </div>
                            </div>","116","","0","images/D8.png","","","","[""Random"",""Non-random""]"
"","","","","","html-slider-response","33","86647","0.0-27.0","u1e2yt2s9f","NaN","<div style=""width:500px;"">
                                <p style=""font-size:50px; font-weight:bold;""
                                ></p>
                                <div style=""width:240px; margin: auto;"">
                                    <img src=""images/D80.png"" style= ""width:200px""alt=""img"">
                                </div>
                            </div>","-115","","0","images/D80.png","","","","[""Random"",""Non-random""]"
"","","","","","html-slider-response","34","88215","0.0-28.0","u1e2yt2s9f","NaN","<div style=""width:500px;"">
                                <p style=""font-size:50px; font-weight:bold;""
                                ></p>
                                <div style=""width:240px; margin: auto;"">
                                    <img src=""images/D55.png"" style= ""width:200px""alt=""img"">
                                </div>
                            </div>","89","","0","images/D55.png","","","","[""Random"",""Non-random""]"
"","","","","","html-slider-response","35","89414","0.0-29.0","u1e2yt2s9f","NaN","<div style=""width:500px;"">
                                <p style=""font-size:50px; font-weight:bold;""
                                ></p>
                                <div style=""width:240px; margin: auto;"">
                                    <img src=""images/D75.png"" style= ""width:200px""alt=""img"">
                                </div>
                            </div>","-102","","0","images/D75.png","","","","[""Random"",""Non-random""]"
"","","","","","html-slider-response","36","90564","0.0-30.0","u1e2yt2s9f","NaN","<div style=""width:500px;"">
                                <p style=""font-size:50px; font-weight:bold;""
                                ></p>
                                <div style=""width:240px; margin: auto;"">
                                    <img src=""images/D57.png"" style= ""width:200px""alt=""img"">
                                </div>
                            </div>","122","","0","images/D57.png","","","","[""Random"",""Non-random""]"
"","","","","","html-slider-response","37","91681","0.0-31.0","u1e2yt2s9f","NaN","<div style=""width:500px;"">
                                <p style=""font-size:50px; font-weight:bold;""
                                ></p>
                                <div style=""width:240px; margin: auto;"">
                                    <img src=""images/D83.png"" style= ""width:200px""alt=""img"">
                                </div>
                            </div>","-78","","0","images/D83.png","","","","[""Random"",""Non-random""]"
"","","","","","html-slider-response","38","93215","0.0-32.0","u1e2yt2s9f","NaN","<div style=""width:500px;"">
                                <p style=""font-size:50px; font-weight:bold;""
                                ></p>
                                <div style=""width:240px; margin: auto;"">
                                    <img src=""images/D26.png"" style= ""width:200px""alt=""img"">
                                </div>
                            </div>","104","","0","images/D26.png","","","","[""Random"",""Non-random""]"
"","","","","","html-slider-response","39","94531","0.0-33.0","u1e2yt2s9f","NaN","<div style=""width:500px;"">
                                <p style=""font-size:50px; font-weight:bold;""
                                ></p>
                                <div style=""width:240px; margin: auto;"">
                                    <img src=""images/D25.png"" style= ""width:200px""alt=""img"">
                                </div>
                            </div>","-66","","0","images/D25.png","","","","[""Random"",""Non-random""]"
"","","","","","html-slider-response","40","95981","0.0-34.0","u1e2yt2s9f","NaN","<div style=""width:500px;"">
                                <p style=""font-size:50px; font-weight:bold;""
                                ></p>
                                <div style=""width:240px; margin: auto;"">
                                    <img src=""images/D18.png"" style= ""width:200px""alt=""img"">
                                </div>
                            </div>","109","","0","images/D18.png","","","","[""Random"",""Non-random""]"
"","","","","","html-slider-response","41","97380","0.0-35.0","u1e2yt2s9f","NaN","<div style=""width:500px;"">
                                <p style=""font-size:50px; font-weight:bold;""
                                ></p>
                                <div style=""width:240px; margin: auto;"">
                                    <img src=""images/D22.png"" style= ""width:200px""alt=""img"">
                                </div>
                            </div>","-62","","0","images/D22.png","","","","[""Random"",""Non-random""]"
"","","","","","html-slider-response","42","98933","0.0-36.0","u1e2yt2s9f","NaN","<div style=""width:500px;"">
                                <p style=""font-size:50px; font-weight:bold;""
                                ></p>
                                <div style=""width:240px; margin: auto;"">
                                    <img src=""images/D29.png"" style= ""width:200px""alt=""img"">
                                </div>
                            </div>","87","","0","images/D29.png","","","","[""Random"",""Non-random""]"
"","","","","","html-slider-response","43","100165","0.0-37.0","u1e2yt2s9f","NaN","<div style=""width:500px;"">
                                <p style=""font-size:50px; font-weight:bold;""
                                ></p>
                                <div style=""width:240px; margin: auto;"">
                                    <img src=""images/D48.png"" style= ""width:200px""alt=""img"">
                                </div>
                            </div>","-86","","0","images/D48.png","","","","[""Random"",""Non-random""]"
"","","","","","html-slider-response","44","101365","0.0-38.0","u1e2yt2s9f","NaN","<div style=""width:500px;"">
                                <p style=""font-size:50px; font-weight:bold;""
                                ></p>
                                <div style=""width:240px; margin: auto;"">
                                    <img src=""images/D106.png"" style= ""width:200px""alt=""img"">
                                </div>
                            </div>","164","","0","images/D106.png","","","","[""Random"",""Non-random""]"
"","","","","","html-slider-response","45","102865","0.0-39.0","u1e2yt2s9f","NaN","<div style=""width:500px;"">
                                <p style=""font-size:50px; font-weight:bold;""
                                ></p>
                                <div style=""width:240px; margin: auto;"">
                                    <img src=""images/D6.png"" style= ""width:200px""alt=""img"">
                                </div>
                            </div>","-61","","0","images/D6.png","","","","[""Random"",""Non-random""]"
"","","","","","html-slider-response","46","104381","0.0-40.0","u1e2yt2s9f","NaN","<div style=""width:500px;"">
                                <p style=""font-size:50px; font-weight:bold;""
                                ></p>
                                <div style=""width:240px; margin: auto;"">
                                    <img src=""images/D79.png"" style= ""width:200px""alt=""img"">
                                </div>
                            </div>","102","","0","images/D79.png","","","","[""Random"",""Non-random""]"
"","","","","","html-slider-response","47","105881","0.0-41.0","u1e2yt2s9f","NaN","<div style=""width:500px;"">
                                <p style=""font-size:50px; font-weight:bold;""
                                ></p>
                                <div style=""width:240px; margin: auto;"">
                                    <img src=""images/D64.png"" style= ""width:200px""alt=""img"">
                                </div>
                            </div>","-94","","0","images/D64.png","","","","[""Random"",""Non-random""]"
"","","","","","html-slider-response","48","107431","0.0-42.0","u1e2yt2s9f","NaN","<div style=""width:500px;"">
                                <p style=""font-size:50px; font-weight:bold;""
                                ></p>
                                <div style=""width:240px; margin: auto;"">
                                    <img src=""images/D4.png"" style= ""width:200px""alt=""img"">
                                </div>
                            </div>","128","","0","images/D4.png","","","","[""Random"",""Non-random""]"
"","","","","","html-slider-response","49","109064","0.0-43.0","u1e2yt2s9f","NaN","<div style=""width:500px;"">
                                <p style=""font-size:50px; font-weight:bold;""
                                ></p>
                                <div style=""width:240px; margin: auto;"">
                                    <img src=""images/D34.png"" style= ""width:200px""alt=""img"">
                                </div>
                            </div>","-74","","0","images/D34.png","","","","[""Random"",""Non-random""]"
"","","","","","html-slider-response","50","111015","0.0-44.0","u1e2yt2s9f","NaN","<div style=""width:500px;"">
                                <p style=""font-size:50px; font-weight:bold;""
                                ></p>
                                <div style=""width:240px; margin: auto;"">
                                    <img src=""images/D84.png"" style= ""width:200px""alt=""img"">
                                </div>
                            </div>","115","","0","images/D84.png","","","","[""Random"",""Non-random""]"
"","","","","","html-slider-response","51","112513","0.0-45.0","u1e2yt2s9f","NaN","<div style=""width:500px;"">
                                <p style=""font-size:50px; font-weight:bold;""
                                ></p>
                                <div style=""width:240px; margin: auto;"">
                                    <img src=""images/D35.png"" style= ""width:200px""alt=""img"">
                                </div>
                            </div>","-58","","0","images/D35.png","","","","[""Random"",""Non-random""]"
"","","","","","html-slider-response","52","113916","0.0-46.0","u1e2yt2s9f","NaN","<div style=""width:500px;"">
                                <p style=""font-size:50px; font-weight:bold;""
                                ></p>
                                <div style=""width:240px; margin: auto;"">
                                    <img src=""images/D94.png"" style= ""width:200px""alt=""img"">
                                </div>
                            </div>","122","","0","images/D94.png","","","","[""Random"",""Non-random""]"
"","","","","","html-slider-response","53","115431","0.0-47.0","u1e2yt2s9f","NaN","<div style=""width:500px;"">
                                <p style=""font-size:50px; font-weight:bold;""
                                ></p>
                                <div style=""width:240px; margin: auto;"">
                                    <img src=""images/D36.png"" style= ""width:200px""alt=""img"">
                                </div>
                            </div>","-99","","0","images/D36.png","","","","[""Random"",""Non-random""]"
"","","","","","html-slider-response","54","117314","0.0-48.0","u1e2yt2s9f","NaN","<div style=""width:500px;"">
                                <p style=""font-size:50px; font-weight:bold;""
                                ></p>
                                <div style=""width:240px; margin: auto;"">
                                    <img src=""images/D3.png"" style= ""width:200px""alt=""img"">
                                </div>
                            </div>","102","","0","images/D3.png","","","","[""Random"",""Non-random""]"
"","","","","","html-slider-response","55","118480","0.0-49.0","u1e2yt2s9f","NaN","<div style=""width:500px;"">
                                <p style=""font-size:50px; font-weight:bold;""
                                ></p>
                                <div style=""width:240px; margin: auto;"">
                                    <img src=""images/D53.png"" style= ""width:200px""alt=""img"">
                                </div>
                            </div>","-81","","0","images/D53.png","","","","[""Random"",""Non-random""]"
"","","","","","html-slider-response","56","119697","0.0-50.0","u1e2yt2s9f","NaN","<div style=""width:500px;"">
                                <p style=""font-size:50px; font-weight:bold;""
                                ></p>
                                <div style=""width:240px; margin: auto;"">
                                    <img src=""images/D105.png"" style= ""width:200px""alt=""img"">
                                </div>
                            </div>","121","","0","images/D105.png","","","","[""Random"",""Non-random""]"
"","","","","","html-slider-response","57","121331","0.0-51.0","u1e2yt2s9f","NaN","<div style=""width:500px;"">
                                <p style=""font-size:50px; font-weight:bold;""
                                ></p>
                                <div style=""width:240px; margin: auto;"">
                                    <img src=""images/D111.png"" style= ""width:200px""alt=""img"">
                                </div>
                            </div>","-99","","0","images/D111.png","","","","[""Random"",""Non-random""]"
"","","","","","html-slider-response","58","122932","0.0-52.0","u1e2yt2s9f","NaN","<div style=""width:500px;"">
                                <p style=""font-size:50px; font-weight:bold;""
                                ></p>
                                <div style=""width:240px; margin: auto;"">
                                    <img src=""images/D66.png"" style= ""width:200px""alt=""img"">
                                </div>
                            </div>","99","","0","images/D66.png","","","","[""Random"",""Non-random""]"
"","","","","","html-slider-response","59","124264","0.0-53.0","u1e2yt2s9f","NaN","<div style=""width:500px;"">
                                <p style=""font-size:50px; font-weight:bold;""
                                ></p>
                                <div style=""width:240px; margin: auto;"">
                                    <img src=""images/D16.png"" style= ""width:200px""alt=""img"">
                                </div>
                            </div>","-86","","0","images/D16.png","","","","[""Random"",""Non-random""]"
"","","","","","html-slider-response","60","126581","0.0-54.0","u1e2yt2s9f","NaN","<div style=""width:500px;"">
                                <p style=""font-size:50px; font-weight:bold;""
                                ></p>
                                <div style=""width:240px; margin: auto;"">
                                    <img src=""images/D21.png"" style= ""width:200px""alt=""img"">
                                </div>
                            </div>","92","","0","images/D21.png","","","","[""Random"",""Non-random""]"
"","","","","","html-slider-response","61","138267","0.0-55.0","u1e2yt2s9f","NaN","<div style=""width:500px;"">
                                <p style=""font-size:50px; font-weight:bold;""
                                ></p>
                                <div style=""width:240px; margin: auto;"">
                                    <img src=""images/D77.png"" style= ""width:200px""alt=""img"">
                                </div>
                            </div>","93","","0","images/D77.png","","","","[""Random"",""Non-random""]"
"","","","","","html-slider-response","62","139833","0.0-56.0","u1e2yt2s9f","NaN","<div style=""width:500px;"">
                                <p style=""font-size:50px; font-weight:bold;""
                                ></p>
                                <div style=""width:240px; margin: auto;"">
                                    <img src=""images/D103.png"" style= ""width:200px""alt=""img"">
                                </div>
                            </div>","-110","","0","images/D103.png","","","","[""Random"",""Non-random""]"
"","","","","","html-slider-response","63","141097","0.0-57.0","u1e2yt2s9f","NaN","<div style=""width:500px;"">
                                <p style=""font-size:50px; font-weight:bold;""
                                ></p>
                                <div style=""width:240px; margin: auto;"">
                                    <img src=""images/D47.png"" style= ""width:200px""alt=""img"">
                                </div>
                            </div>","112","","0","images/D47.png","","","","[""Random"",""Non-random""]"
"","","","","","html-slider-response","64","142348","0.0-58.0","u1e2yt2s9f","NaN","<div style=""width:500px;"">
                                <p style=""font-size:50px; font-weight:bold;""
                                ></p>
                                <div style=""width:240px; margin: auto;"">
                                    <img src=""images/D92.png"" style= ""width:200px""alt=""img"">
                                </div>
                            </div>","-148","","0","images/D92.png","","","","[""Random"",""Non-random""]"
"","","","","","html-slider-response","65","143731","0.0-59.0","u1e2yt2s9f","NaN","<div style=""width:500px;"">
                                <p style=""font-size:50px; font-weight:bold;""
                                ></p>
                                <div style=""width:240px; margin: auto;"">
                                    <img src=""images/D87.png"" style= ""width:200px""alt=""img"">
                                </div>
                            </div>","89","","0","images/D87.png","","","","[""Random"",""Non-random""]"
"","","","","","html-slider-response","66","145214","0.0-60.0","u1e2yt2s9f","NaN","<div style=""width:500px;"">
                                <p style=""font-size:50px; font-weight:bold;""
                                ></p>
                                <div style=""width:240px; margin: auto;"">
                                    <img src=""images/D17.png"" style= ""width:200px""alt=""img"">
                                </div>
                            </div>","-122","","0","images/D17.png","","","","[""Random"",""Non-random""]"
"","","","","","html-slider-response","67","146615","0.0-61.0","u1e2yt2s9f","NaN","<div style=""width:500px;"">
                                <p style=""font-size:50px; font-weight:bold;""
                                ></p>
                                <div style=""width:240px; margin: auto;"">
                                    <img src=""images/D74.png"" style= ""width:200px""alt=""img"">
                                </div>
                            </div>","62","","0","images/D74.png","","","","[""Random"",""Non-random""]"
"","","","","","html-slider-response","68","147747","0.0-62.0","u1e2yt2s9f","NaN","<div style=""width:500px;"">
                                <p style=""font-size:50px; font-weight:bold;""
                                ></p>
                                <div style=""width:240px; margin: auto;"">
                                    <img src=""images/D96.png"" style= ""width:200px""alt=""img"">
                                </div>
                            </div>","-122","","0","images/D96.png","","","","[""Random"",""Non-random""]"
"","","","","","html-slider-response","69","148997","0.0-63.0","u1e2yt2s9f","NaN","<div style=""width:500px;"">
                                <p style=""font-size:50px; font-weight:bold;""
                                ></p>
                                <div style=""width:240px; margin: auto;"">
                                    <img src=""images/D24.png"" style= ""width:200px""alt=""img"">
                                </div>
                            </div>","123","","0","images/D24.png","","","","[""Random"",""Non-random""]"
"","","","","","html-slider-response","70","151480","0.0-64.0","u1e2yt2s9f","NaN","<div style=""width:500px;"">
                                <p style=""font-size:50px; font-weight:bold;""
                                ></p>
                                <div style=""width:240px; margin: auto;"">
                                    <img src=""images/D102.png"" style= ""width:200px""alt=""img"">
                                </div>
                            </div>","-86","","0","images/D102.png","","","","[""Random"",""Non-random""]"
"","","","","","html-slider-response","71","152746","0.0-65.0","u1e2yt2s9f","NaN","<div style=""width:500px;"">
                                <p style=""font-size:50px; font-weight:bold;""
                                ></p>
                                <div style=""width:240px; margin: auto;"">
                                    <img src=""images/D104.png"" style= ""width:200px""alt=""img"">
                                </div>
                            </div>","96","","0","images/D104.png","","","","[""Random"",""Non-random""]"
"","","","","","html-slider-response","72","153880","0.0-66.0","u1e2yt2s9f","NaN","<div style=""width:500px;"">
                                <p style=""font-size:50px; font-weight:bold;""
                                ></p>
                                <div style=""width:240px; margin: auto;"">
                                    <img src=""images/D11.png"" style= ""width:200px""alt=""img"">
                                </div>
                            </div>","-103","","0","images/D11.png","","","","[""Random"",""Non-random""]"
"","","","","","html-slider-response","73","154983","0.0-67.0","u1e2yt2s9f","NaN","<div style=""width:500px;"">
                                <p style=""font-size:50px; font-weight:bold;""
                                ></p>
                                <div style=""width:240px; margin: auto;"">
                                    <img src=""images/D20.png"" style= ""width:200px""alt=""img"">
                                </div>
                            </div>","114","","0","images/D20.png","","","","[""Random"",""Non-random""]"
"","","","","","html-slider-response","74","156663","0.0-68.0","u1e2yt2s9f","NaN","<div style=""width:500px;"">
                                <p style=""font-size:50px; font-weight:bold;""
                                ></p>
                                <div style=""width:240px; margin: auto;"">
                                    <img src=""images/D52.png"" style= ""width:200px""alt=""img"">
                                </div>
                            </div>","-115","","0","images/D52.png","","","","[""Random"",""Non-random""]"
"","","","","","html-slider-response","75","158099","0.0-69.0","u1e2yt2s9f","NaN","<div style=""width:500px;"">
                                <p style=""font-size:50px; font-weight:bold;""
                                ></p>
                                <div style=""width:240px; margin: auto;"">
                                    <img src=""images/D78.png"" style= ""width:200px""alt=""img"">
                                </div>
                            </div>","98","","0","images/D78.png","","","","[""Random"",""Non-random""]"
"","","","","","html-slider-response","76","159582","0.0-70.0","u1e2yt2s9f","NaN","<div style=""width:500px;"">
                                <p style=""font-size:50px; font-weight:bold;""
                                ></p>
                                <div style=""width:240px; margin: auto;"">
                                    <img src=""images/D65.png"" style= ""width:200px""alt=""img"">
                                </div>
                            </div>","-114","","0","images/D65.png","","","","[""Random"",""Non-random""]"
"","","","","","html-slider-response","77","161147","0.0-71.0","u1e2yt2s9f","NaN","<div style=""width:500px;"">
                                <p style=""font-size:50px; font-weight:bold;""
                                ></p>
                                <div style=""width:240px; margin: auto;"">
                                    <img src=""images/D68.png"" style= ""width:200px""alt=""img"">
                                </div>
                            </div>","114","","0","images/D68.png","","","","[""Random"",""Non-random""]"
"","","","","","html-slider-response","78","162830","0.0-72.0","u1e2yt2s9f","NaN","<div style=""width:500px;"">
                                <p style=""font-size:50px; font-weight:bold;""
                                ></p>
                                <div style=""width:240px; margin: auto;"">
                                    <img src=""images/D56.png"" style= ""width:200px""alt=""img"">
                                </div>
                            </div>","-97","","0","images/D56.png","","","","[""Random"",""Non-random""]"
"","","","","","html-slider-response","79","164130","0.0-73.0","u1e2yt2s9f","NaN","<div style=""width:500px;"">
                                <p style=""font-size:50px; font-weight:bold;""
                                ></p>
                                <div style=""width:240px; margin: auto;"">
                                    <img src=""images/D32.png"" style= ""width:200px""alt=""img"">
                                </div>
                            </div>","122","","0","images/D32.png","","","","[""Random"",""Non-random""]"
"","","","","","html-slider-response","80","165564","0.0-74.0","u1e2yt2s9f","NaN","<div style=""width:500px;"">
                                <p style=""font-size:50px; font-weight:bold;""
                                ></p>
                                <div style=""width:240px; margin: auto;"">
                                    <img src=""images/D19.png"" style= ""width:200px""alt=""img"">
                                </div>
                            </div>","-86","","0","images/D19.png","","","","[""Random"",""Non-random""]"
"","","","","","html-slider-response","81","166831","0.0-75.0","u1e2yt2s9f","NaN","<div style=""width:500px;"">
                                <p style=""font-size:50px; font-weight:bold;""
                                ></p>
                                <div style=""width:240px; margin: auto;"">
                                    <img src=""images/D9.png"" style= ""width:200px""alt=""img"">
                                </div>
                            </div>","101","","0","images/D9.png","","","","[""Random"",""Non-random""]"
"","","","","","html-button-response","82","168802","0.0-76.0","u1e2yt2s9f","1469","You have completed the first block of trials out of six. Please click 'Continue' when you are ready proceed.","0","","","","","","",""
"","","","","","html-button-response","83","169518","0.0-77.0","u1e2yt2s9f","716","In the following trials, you will be asked to rate textures on the scale <b>Rough</b> versus <b>Smooth</b>. Please click 'Continue' when you are ready proceed.","0","","","","","","",""
"","","","","","html-slider-response","84","170914","0.0-78.0","u1e2yt2s9f","NaN","<div style=""width:500px;"">
                                <p style=""font-size:50px; font-weight:bold;""
                                ></p>
                                <div style=""width:240px; margin: auto;"">
                                    <img src=""images/D83.png"" style= ""width:200px""alt=""img"">
                                </div>
                            </div>","-66","","0","images/D83.png","","","","[""Rough"",""Smooth""]"
"","","","","","html-slider-response","85","172183","0.0-79.0","u1e2yt2s9f","NaN","<div style=""width:500px;"">
                                <p style=""font-size:50px; font-weight:bold;""
                                ></p>
                                <div style=""width:240px; margin: auto;"">
                                    <img src=""images/D35.png"" style= ""width:200px""alt=""img"">
                                </div>
                            </div>","86","","0","images/D35.png","","","","[""Rough"",""Smooth""]"
"","","","","","html-slider-response","86","174580","0.0-80.0","u1e2yt2s9f","NaN","<div style=""width:500px;"">
                                <p style=""font-size:50px; font-weight:bold;""
                                ></p>
                                <div style=""width:240px; margin: auto;"">
                                    <img src=""images/D3.png"" style= ""width:200px""alt=""img"">
                                </div>
                            </div>","101","","0","images/D3.png","","","","[""Rough"",""Smooth""]"
"","","","","","html-slider-response","87","176299","0.0-81.0","u1e2yt2s9f","NaN","<div style=""width:500px;"">
                                <p style=""font-size:50px; font-weight:bold;""
                                ></p>
                                <div style=""width:240px; margin: auto;"">
                                    <img src=""images/D57.png"" style= ""width:200px""alt=""img"">
                                </div>
                            </div>","-107","","0","images/D57.png","","","","[""Rough"",""Smooth""]"
"","","","","","html-slider-response","88","177786","0.0-82.0","u1e2yt2s9f","NaN","<div style=""width:500px;"">
                                <p style=""font-size:50px; font-weight:bold;""
                                ></p>
                                <div style=""width:240px; margin: auto;"">
                                    <img src=""images/D52.png"" style= ""width:200px""alt=""img"">
                                </div>
                            </div>","140","","0","images/D52.png","","","","[""Rough"",""Smooth""]"
"","","","","","html-slider-response","89","179230","0.0-83.0","u1e2yt2s9f","NaN","<div style=""width:500px;"">
                                <p style=""font-size:50px; font-weight:bold;""
                                ></p>
                                <div style=""width:240px; margin: auto;"">
                                    <img src=""images/D75.png"" style= ""width:200px""alt=""img"">
                                </div>
                            </div>","123","","0","images/D75.png","","","","[""Rough"",""Smooth""]"
"","","","","","html-slider-response","90","180547","0.0-84.0","u1e2yt2s9f","NaN","<div style=""width:500px;"">
                                <p style=""font-size:50px; font-weight:bold;""
                                ></p>
                                <div style=""width:240px; margin: auto;"">
                                    <img src=""images/D17.png"" style= ""width:200px""alt=""img"">
                                </div>
                            </div>","-84","","0","images/D17.png","","","","[""Rough"",""Smooth""]"
"","","","","","html-slider-response","91","181980","0.0-85.0","u1e2yt2s9f","NaN","<div style=""width:500px;"">
                                <p style=""font-size:50px; font-weight:bold;""
                                ></p>
                                <div style=""width:240px; margin: auto;"">
                                    <img src=""images/D85.png"" style= ""width:200px""alt=""img"">
                                </div>
                            </div>","-73","","0","images/D85.png","","","","[""Rough"",""Smooth""]"
"","","","","","html-slider-response","92","183330","0.0-86.0","u1e2yt2s9f","NaN","<div style=""width:500px;"">
                                <p style=""font-size:50px; font-weight:bold;""
                                ></p>
                                <div style=""width:240px; margin: auto;"">
                                    <img src=""images/D47.png"" style= ""width:200px""alt=""img"">
                                </div>
                            </div>","-112","","0","images/D47.png","","","","[""Rough"",""Smooth""]"
"","","","","","html-slider-response","93","184380","0.0-87.0","u1e2yt2s9f","NaN","<div style=""width:500px;"">
                                <p style=""font-size:50px; font-weight:bold;""
                                ></p>
                                <div style=""width:240px; margin: auto;"">
                                    <img src=""images/D96.png"" style= ""width:200px""alt=""img"">
                                </div>
                            </div>","-94","","0","images/D96.png","","","","[""Rough"",""Smooth""]"
"","","","","","html-slider-response","94","185331","0.0-88.0","u1e2yt2s9f","NaN","<div style=""width:500px;"">
                                <p style=""font-size:50px; font-weight:bold;""
                                ></p>
                                <div style=""width:240px; margin: auto;"">
                                    <img src=""images/D105.png"" style= ""width:200px""alt=""img"">
                                </div>
                            </div>","30","","0","images/D105.png","","","","[""Rough"",""Smooth""]"
"","","","","","html-slider-response","95","186315","0.0-89.0","u1e2yt2s9f","NaN","<div style=""width:500px;"">
                                <p style=""font-size:50px; font-weight:bold;""
                                ></p>
                                <div style=""width:240px; margin: auto;"">
                                    <img src=""images/D103.png"" style= ""width:200px""alt=""img"">
                                </div>
                            </div>","-73","","0","images/D103.png","","","","[""Rough"",""Smooth""]"
"","","","","","html-slider-response","96","187986","0.0-90.0","u1e2yt2s9f","NaN","<div style=""width:500px;"">
                                <p style=""font-size:50px; font-weight:bold;""
                                ></p>
                                <div style=""width:240px; margin: auto;"">
                                    <img src=""images/D1.png"" style= ""width:200px""alt=""img"">
                                </div>
                            </div>","-60","","0","images/D1.png","","","","[""Rough"",""Smooth""]"
"","","","","","html-slider-response","97","189063","0.0-91.0","u1e2yt2s9f","NaN","<div style=""width:500px;"">
                                <p style=""font-size:50px; font-weight:bold;""
                                ></p>
                                <div style=""width:240px; margin: auto;"">
                                    <img src=""images/D34.png"" style= ""width:200px""alt=""img"">
                                </div>
                            </div>","53","","0","images/D34.png","","","","[""Rough"",""Smooth""]"
"","","","","","html-slider-response","98","190264","0.0-92.0","u1e2yt2s9f","NaN","<div style=""width:500px;"">
                                <p style=""font-size:50px; font-weight:bold;""
                                ></p>
                                <div style=""width:240px; margin: auto;"">
                                    <img src=""images/D94.png"" style= ""width:200px""alt=""img"">
                                </div>
                            </div>","-120","","0","images/D94.png","","","","[""Rough"",""Smooth""]"
"","","","","","html-slider-response","99","191499","0.0-93.0","u1e2yt2s9f","NaN","<div style=""width:500px;"">
                                <p style=""font-size:50px; font-weight:bold;""
                                ></p>
                                <div style=""width:240px; margin: auto;"">
                                    <img src=""images/D95.png"" style= ""width:200px""alt=""img"">
                                </div>
                            </div>","30","","0","images/D95.png","","","","[""Rough"",""Smooth""]"
"","","","","","html-slider-response","100","192747","0.0-94.0","u1e2yt2s9f","NaN","<div style=""width:500px;"">
                                <p style=""font-size:50px; font-weight:bold;""
                                ></p>
                                <div style=""width:240px; margin: auto;"">
                                    <img src=""images/D14.png"" style= ""width:200px""alt=""img"">
                                </div>
                            </div>","-103","","0","images/D14.png","","","","[""Rough"",""Smooth""]"
"","","","","","html-slider-response","101","193899","0.0-95.0","u1e2yt2s9f","NaN","<div style=""width:500px;"">
                                <p style=""font-size:50px; font-weight:bold;""
                                ></p>
                                <div style=""width:240px; margin: auto;"">
                                    <img src=""images/D21.png"" style= ""width:200px""alt=""img"">
                                </div>
                            </div>","58","","0","images/D21.png","","","","[""Rough"",""Smooth""]"
"","","","","","html-slider-response","102","196514","0.0-96.0","u1e2yt2s9f","NaN","<div style=""width:500px;"">
                                <p style=""font-size:50px; font-weight:bold;""
                                ></p>
                                <div style=""width:240px; margin: auto;"">
                                    <img src=""images/D26.png"" style= ""width:200px""alt=""img"">
                                </div>
                            </div>","-99","","0","images/D26.png","","","","[""Rough"",""Smooth""]"
"","","","","","html-slider-response","103","197796","0.0-97.0","u1e2yt2s9f","NaN","<div style=""width:500px;"">
                                <p style=""font-size:50px; font-weight:bold;""
                                ></p>
                                <div style=""width:240px; margin: auto;"">
                                    <img src=""images/D76.png"" style= ""width:200px""alt=""img"">
                                </div>
                            </div>","78","","0","images/D76.png","","","","[""Rough"",""Smooth""]"
"","","","","","html-slider-response","104","199047","0.0-98.0","u1e2yt2s9f","NaN","<div style=""width:500px;"">
                                <p style=""font-size:50px; font-weight:bold;""
                                ></p>
                                <div style=""width:240px; margin: auto;"">
                                    <img src=""images/D80.png"" style= ""width:200px""alt=""img"">
                                </div>
                            </div>","-72","","0","images/D80.png","","","","[""Rough"",""Smooth""]"
"","","","","","html-slider-response","105","200513","0.0-99.0","u1e2yt2s9f","NaN","<div style=""width:500px;"">
                                <p style=""font-size:50px; font-weight:bold;""
                                ></p>
                                <div style=""width:240px; margin: auto;"">
                                    <img src=""images/D19.png"" style= ""width:200px""alt=""img"">
                                </div>
                            </div>","62","","0","images/D19.png","","","","[""Rough"",""Smooth""]"
"","","","","","html-slider-response","106","201764","0.0-100.0","u1e2yt2s9f","NaN","<div style=""width:500px;"">
                                <p style=""font-size:50px; font-weight:bold;""
                                ></p>
                                <div style=""width:240px; margin: auto;"">
                                    <img src=""images/D106.png"" style= ""width:200px""alt=""img"">
                                </div>
                            </div>","-119","","0","images/D106.png","","","","[""Rough"",""Smooth""]"
"","","","","","html-slider-response","107","203397","0.0-101.0","u1e2yt2s9f","NaN","<div style=""width:500px;"">
                                <p style=""font-size:50px; font-weight:bold;""
                                ></p>
                                <div style=""width:240px; margin: auto;"">
                                    <img src=""images/D55.png"" style= ""width:200px""alt=""img"">
                                </div>
                            </div>","21","","0","images/D55.png","","","","[""Rough"",""Smooth""]"
"","","","","","html-slider-response","108","204781","0.0-102.0","u1e2yt2s9f","NaN","<div style=""width:500px;"">
                                <p style=""font-size:50px; font-weight:bold;""
                                ></p>
                                <div style=""width:240px; margin: auto;"">
                                    <img src=""images/D79.png"" style= ""width:200px""alt=""img"">
                                </div>
                            </div>","-122","","0","images/D79.png","","","","[""Rough"",""Smooth""]"
"","","","","","html-slider-response","109","205913","0.0-103.0","u1e2yt2s9f","NaN","<div style=""width:500px;"">
                                <p style=""font-size:50px; font-weight:bold;""
                                ></p>
                                <div style=""width:240px; margin: auto;"">
                                    <img src=""images/D8.png"" style= ""width:200px""alt=""img"">
                                </div>
                            </div>","96","","0","images/D8.png","","","","[""Rough"",""Smooth""]"
"","","","","","html-slider-response","110","207180","0.0-104.0","u1e2yt2s9f","NaN","<div style=""width:500px;"">
                                <p style=""font-size:50px; font-weight:bold;""
                                ></p>
                                <div style=""width:240px; margin: auto;"">
                                    <img src=""images/D101.png"" style= ""width:200px""alt=""img"">
                                </div>
                            </div>","-67","","0","images/D101.png","","","","[""Rough"",""Smooth""]"
"","","","","","html-slider-response","111","208413","0.0-105.0","u1e2yt2s9f","NaN","<div style=""width:500px;"">
                                <p style=""font-size:50px; font-weight:bold;""
                                ></p>
                                <div style=""width:240px; margin: auto;"">
                                    <img src=""images/D81.png"" style= ""width:200px""alt=""img"">
                                </div>
                            </div>","86","","0","images/D81.png","","","","[""Rough"",""Smooth""]"
"","","","","","html-slider-response","112","209680","0.0-106.0","u1e2yt2s9f","NaN","<div style=""width:500px;"">
                                <p style=""font-size:50px; font-weight:bold;""
                                ></p>
                                <div style=""width:240px; margin: auto;"">
                                    <img src=""images/D104.png"" style= ""width:200px""alt=""img"">
                                </div>
                            </div>","-146","","0","images/D104.png","","","","[""Rough"",""Smooth""]"
"","","","","","html-slider-response","113","212415","0.0-107.0","u1e2yt2s9f","NaN","<div style=""width:500px;"">
                                <p style=""font-size:50px; font-weight:bold;""
                                ></p>
                                <div style=""width:240px; margin: auto;"">
                                    <img src=""images/D66.png"" style= ""width:200px""alt=""img"">
                                </div>
                            </div>","80","","0","images/D66.png","","","","[""Rough"",""Smooth""]"
"","","","","","html-slider-response","114","213697","0.0-108.0","u1e2yt2s9f","NaN","<div style=""width:500px;"">
                                <p style=""font-size:50px; font-weight:bold;""
                                ></p>
                                <div style=""width:240px; margin: auto;"">
                                    <img src=""images/D37.png"" style= ""width:200px""alt=""img"">
                                </div>
                            </div>","-88","","0","images/D37.png","","","","[""Rough"",""Smooth""]"
"","","","","","html-slider-response","115","215280","0.0-109.0","u1e2yt2s9f","NaN","<div style=""width:500px;"">
                                <p style=""font-size:50px; font-weight:bold;""
                                ></p>
                                <div style=""width:240px; margin: auto;"">
                                    <img src=""images/D49.png"" style= ""width:200px""alt=""img"">
                                </div>
                            </div>","36","","0","images/D49.png","","","","[""Rough"",""Smooth""]"
"","","","","","html-slider-response","116","216697","0.0-110.0","u1e2yt2s9f","NaN","<div style=""width:500px;"">
                                <p style=""font-size:50px; font-weight:bold;""
                                ></p>
                                <div style=""width:240px; margin: auto;"">
                                    <img src=""images/D64.png"" style= ""width:200px""alt=""img"">
                                </div>
                            </div>","-80","","0","images/D64.png","","","","[""Rough"",""Smooth""]"
"","","","","","html-slider-response","117","218096","0.0-111.0","u1e2yt2s9f","NaN","<div style=""width:500px;"">
                                <p style=""font-size:50px; font-weight:bold;""
                                ></p>
                                <div style=""width:240px; margin: auto;"">
                                    <img src=""images/D11.png"" style= ""width:200px""alt=""img"">
                                </div>
                            </div>","81","","0","images/D11.png","","","","[""Rough"",""Smooth""]"
"","","","","","html-slider-response","118","219530","0.0-112.0","u1e2yt2s9f","NaN","<div style=""width:500px;"">
                                <p style=""font-size:50px; font-weight:bold;""
                                ></p>
                                <div style=""width:240px; margin: auto;"">
                                    <img src=""images/D84.png"" style= ""width:200px""alt=""img"">
                                </div>
                            </div>","-126","","0","images/D84.png","","","","[""Rough"",""Smooth""]"
"","","","","","html-slider-response","119","221697","0.0-113.0","u1e2yt2s9f","NaN","<div style=""width:500px;"">
                                <p style=""font-size:50px; font-weight:bold;""
                                ></p>
                                <div style=""width:240px; margin: auto;"">
                                    <img src=""images/D74.png"" style= ""width:200px""alt=""img"">
                                </div>
                            </div>","49","","0","images/D74.png","","","","[""Rough"",""Smooth""]"
"","","","","","html-slider-response","120","223030","0.0-114.0","u1e2yt2s9f","NaN","<div style=""width:500px;"">
                                <p style=""font-size:50px; font-weight:bold;""
                                ></p>
                                <div style=""width:240px; margin: auto;"">
                                    <img src=""images/D18.png"" style= ""width:200px""alt=""img"">
                                </div>
                            </div>","-115","","0","images/D18.png","","","","[""Rough"",""Smooth""]"
"","","","","","html-slider-response","121","225962","0.0-115.0","u1e2yt2s9f","NaN","<div style=""width:500px;"">
                                <p style=""font-size:50px; font-weight:bold;""
                                ></p>
                                <div style=""width:240px; margin: auto;"">
                                    <img src=""images/D20.png"" style= ""width:200px""alt=""img"">
                                </div>
                            </div>","103","","0","images/D20.png","","","","[""Rough"",""Smooth""]"
"","","","","","html-slider-response","122","227130","0.0-116.0","u1e2yt2s9f","NaN","<div style=""width:500px;"">
                                <p style=""font-size:50px; font-weight:bold;""
                                ></p>
                                <div style=""width:240px; margin: auto;"">
                                    <img src=""images/D77.png"" style= ""width:200px""alt=""img"">
                                </div>
                            </div>","-70","","0","images/D77.png","","","","[""Rough"",""Smooth""]"
"","","","","","html-slider-response","123","228281","0.0-117.0","u1e2yt2s9f","NaN","<div style=""width:500px;"">
                                <p style=""font-size:50px; font-weight:bold;""
                                ></p>
                                <div style=""width:240px; margin: auto;"">
                                    <img src=""images/D51.png"" style= ""width:200px""alt=""img"">
                                </div>
                            </div>","20","","0","images/D51.png","","","","[""Rough"",""Smooth""]"
"","","","","","html-slider-response","124","229296","0.0-118.0","u1e2yt2s9f","NaN","<div style=""width:500px;"">
                                <p style=""font-size:50px; font-weight:bold;""
                                ></p>
                                <div style=""width:240px; margin: auto;"">
                                    <img src=""images/D48.png"" style= ""width:200px""alt=""img"">
                                </div>
                            </div>","-147","","0","images/D48.png","","","","[""Rough"",""Smooth""]"
"","","","","","html-slider-response","125","233648","0.0-119.0","u1e2yt2s9f","NaN","<div style=""width:500px;"">
                                <p style=""font-size:50px; font-weight:bold;""
                                ></p>
                                <div style=""width:240px; margin: auto;"">
                                    <img src=""images/D78.png"" style= ""width:200px""alt=""img"">
                                </div>
                            </div>","68","","0","images/D78.png","","","","[""Rough"",""Smooth""]"
"","","","","","html-slider-response","126","235113","0.0-120.0","u1e2yt2s9f","NaN","<div style=""width:500px;"">
                                <p style=""font-size:50px; font-weight:bold;""
                                ></p>
                                <div style=""width:240px; margin: auto;"">
                                    <img src=""images/D29.png"" style= ""width:200px""alt=""img"">
                                </div>
                            </div>","-64","","0","images/D29.png","","","","[""Rough"",""Smooth""]"
"","","","","","html-slider-response","127","236382","0.0-121.0","u1e2yt2s9f","NaN","<div style=""width:500px;"">
                                <p style=""font-size:50px; font-weight:bold;""
                                ></p>
                                <div style=""width:240px; margin: auto;"">
                                    <img src=""images/D36.png"" style= ""width:200px""alt=""img"">
                                </div>
                            </div>","62","","0","images/D36.png","","","","[""Rough"",""Smooth""]"
"","","","","","html-slider-response","128","239131","0.0-122.0","u1e2yt2s9f","NaN","<div style=""width:500px;"">
                                <p style=""font-size:50px; font-weight:bold;""
                                ></p>
                                <div style=""width:240px; margin: auto;"">
                                    <img src=""images/D46.png"" style= ""width:200px""alt=""img"">
                                </div>
                            </div>","155","","0","images/D46.png","","","","[""Rough"",""Smooth""]"
"","","","","","html-slider-response","129","240396","0.0-123.0","u1e2yt2s9f","NaN","<div style=""width:500px;"">
                                <p style=""font-size:50px; font-weight:bold;""
                                ></p>
                                <div style=""width:240px; margin: auto;"">
                                    <img src=""images/D25.png"" style= ""width:200px""alt=""img"">
                                </div>
                            </div>","-96","","0","images/D25.png","","","","[""Rough"",""Smooth""]"
"","","","","","html-slider-response","130","241463","0.0-124.0","u1e2yt2s9f","NaN","<div style=""width:500px;"">
                                <p style=""font-size:50px; font-weight:bold;""
                                ></p>
                                <div style=""width:240px; margin: auto;"">
                                    <img src=""images/D102.png"" style= ""width:200px""alt=""img"">
                                </div>
                            </div>","44","","0","images/D102.png","","","","[""Rough"",""Smooth""]"
"","","","","","html-slider-response","131","245684","0.0-125.0","u1e2yt2s9f","NaN","<div style=""width:500px;"">
                                <p style=""font-size:50px; font-weight:bold;""
                                ></p>
                                <div style=""width:240px; margin: auto;"">
                                    <img src=""images/D111.png"" style= ""width:200px""alt=""img"">
                                </div>
                            </div>","-59","","0","images/D111.png","","","","[""Rough"",""Smooth""]"
"","","","","","html-slider-response","132","251498","0.0-126.0","u1e2yt2s9f","NaN","<div style=""width:500px;"">
                                <p style=""font-size:50px; font-weight:bold;""
                                ></p>
                                <div style=""width:240px; margin: auto;"">
                                    <img src=""images/D56.png"" style= ""width:200px""alt=""img"">
                                </div>
                            </div>","63","","0","images/D56.png","","","","[""Rough"",""Smooth""]"
"","","","","","html-slider-response","133","252680","0.0-127.0","u1e2yt2s9f","NaN","<div style=""width:500px;"">
                                <p style=""font-size:50px; font-weight:bold;""
                                ></p>
                                <div style=""width:240px; margin: auto;"">
                                    <img src=""images/D82.png"" style= ""width:200px""alt=""img"">
                                </div>
                            </div>","-65","","0","images/D82.png","","","","[""Rough"",""Smooth""]"
"","","","","","html-slider-response","134","254097","0.0-128.0","u1e2yt2s9f","NaN","<div style=""width:500px;"">
                                <p style=""font-size:50px; font-weight:bold;""
                                ></p>
                                <div style=""width:240px; margin: auto;"">
                                    <img src=""images/D22.png"" style= ""width:200px""alt=""img"">
                                </div>
                            </div>","90","","0","images/D22.png","","","","[""Rough"",""Smooth""]"
"","","","","","html-slider-response","135","255248","0.0-129.0","u1e2yt2s9f","NaN","<div style=""width:500px;"">
                                <p style=""font-size:50px; font-weight:bold;""
                                ></p>
                                <div style=""width:240px; margin: auto;"">
                                    <img src=""images/D53.png"" style= ""width:200px""alt=""img"">
                                </div>
                            </div>","-124","","0","images/D53.png","","","","[""Rough"",""Smooth""]"
"","","","","","html-slider-response","136","256463","0.0-130.0","u1e2yt2s9f","NaN","<div style=""width:500px;"">
                                <p style=""font-size:50px; font-weight:bold;""
                                ></p>
                                <div style=""width:240px; margin: auto;"">
                                    <img src=""images/D65.png"" style= ""width:200px""alt=""img"">
                                </div>
                            </div>","128","","0","images/D65.png","","","","[""Rough"",""Smooth""]"
"","","","","","html-slider-response","137","257929","0.0-131.0","u1e2yt2s9f","NaN","<div style=""width:500px;"">
                                <p style=""font-size:50px; font-weight:bold;""
                                ></p>
                                <div style=""width:240px; margin: auto;"">
                                    <img src=""images/D32.png"" style= ""width:200px""alt=""img"">
                                </div>
                            </div>","-124","","0","images/D32.png","","","","[""Rough"",""Smooth""]"
"","","","","","html-slider-response","138","259334","0.0-132.0","u1e2yt2s9f","NaN","<div style=""width:500px;"">
                                <p style=""font-size:50px; font-weight:bold;""
                                ></p>
                                <div style=""width:240px; margin: auto;"">
                                    <img src=""images/D68.png"" style= ""width:200px""alt=""img"">
                                </div>
                            </div>","149","","0","images/D68.png","","","","[""Rough"",""Smooth""]"
"","","","","","html-slider-response","139","260848","0.0-133.0","u1e2yt2s9f","NaN","<div style=""width:500px;"">
                                <p style=""font-size:50px; font-weight:bold;""
                                ></p>
                                <div style=""width:240px; margin: auto;"">
                                    <img src=""images/D16.png"" style= ""width:200px""alt=""img"">
                                </div>
                            </div>","-94","","0","images/D16.png","","","","[""Rough"",""Smooth""]"
"","","","","","html-slider-response","140","262413","0.0-134.0","u1e2yt2s9f","NaN","<div style=""width:500px;"">
                                <p style=""font-size:50px; font-weight:bold;""
                                ></p>
                                <div style=""width:240px; margin: auto;"">
                                    <img src=""images/D4.png"" style= ""width:200px""alt=""img"">
                                </div>
                            </div>","103","","0","images/D4.png","","","","[""Rough"",""Smooth""]"
"","","","","","html-slider-response","141","264013","0.0-135.0","u1e2yt2s9f","NaN","<div style=""width:500px;"">
                                <p style=""font-size:50px; font-weight:bold;""
                                ></p>
                                <div style=""width:240px; margin: auto;"">
                                    <img src=""images/D92.png"" style= ""width:200px""alt=""img"">
                                </div>
                            </div>","-98","","0","images/D92.png","","","","[""Rough"",""Smooth""]"
"","","","","","html-slider-response","142","265780","0.0-136.0","u1e2yt2s9f","NaN","<div style=""width:500px;"">
                                <p style=""font-size:50px; font-weight:bold;""
                                ></p>
                                <div style=""width:240px; margin: auto;"">
                                    <img src=""images/D24.png"" style= ""width:200px""alt=""img"">
                                </div>
                            </div>","102","","0","images/D24.png","","","","[""Rough"",""Smooth""]"
"","","","","","html-slider-response","143","267171","0.0-137.0","u1e2yt2s9f","NaN","<div style=""width:500px;"">
                                <p style=""font-size:50px; font-weight:bold;""
                                ></p>
                                <div style=""width:240px; margin: auto;"">
                                    <img src=""images/D9.png"" style= ""width:200px""alt=""img"">
                                </div>
                            </div>","-118","","0","images/D9.png","","","","[""Rough"",""Smooth""]"
"","","","","","html-slider-response","144","268380","0.0-138.0","u1e2yt2s9f","NaN","<div style=""width:500px;"">
                                <p style=""font-size:50px; font-weight:bold;""
                                ></p>
                                <div style=""width:240px; margin: auto;"">
                                    <img src=""images/D87.png"" style= ""width:200px""alt=""img"">
                                </div>
                            </div>","135","","0","images/D87.png","","","","[""Rough"",""Smooth""]"
"","","","","","html-slider-response","145","269829","0.0-139.0","u1e2yt2s9f","NaN","<div style=""width:500px;"">
                                <p style=""font-size:50px; font-weight:bold;""
                                ></p>
                                <div style=""width:240px; margin: auto;"">
                                    <img src=""images/D6.png"" style= ""width:200px""alt=""img"">
                                </div>
                            </div>","-120","","0","images/D6.png","","","","[""Rough"",""Smooth""]"
"","","","","","html-button-response","146","271269","0.0-140.0","u1e2yt2s9f","938","You have completed the second block of trials out of six. Please click 'Continue' when you are ready proceed.","0","","","","","","",""
"","","","","","html-button-response","147","272918","0.0-141.0","u1e2yt2s9f","1649","In the following trials, you will be asked to rate textures on the scale <b>Rounded</b> versus <b>Rectangular</b>. Please click 'Continue' when you are ready proceed.","0","","","","","","",""
"","","","","","html-slider-response","148","275862","0.0-142.0","u1e2yt2s9f","NaN","<div style=""width:500px;"">
                                <p style=""font-size:50px; font-weight:bold;""
                                ></p>
                                <div style=""width:240px; margin: auto;"">
                                    <img src=""images/D83.png"" style= ""width:200px""alt=""img"">
                                </div>
                            </div>","162","","0","images/D83.png","","","","[""Rounded"",""Rectangular""]"
"","","","","","html-slider-response","149","277746","0.0-143.0","u1e2yt2s9f","NaN","<div style=""width:500px;"">
                                <p style=""font-size:50px; font-weight:bold;""
                                ></p>
                                <div style=""width:240px; margin: auto;"">
                                    <img src=""images/D35.png"" style= ""width:200px""alt=""img"">
                                </div>
                            </div>","139","","0","images/D35.png","","","","[""Rounded"",""Rectangular""]"
"","","","","","html-slider-response","150","279831","0.0-144.0","u1e2yt2s9f","NaN","<div style=""width:500px;"">
                                <p style=""font-size:50px; font-weight:bold;""
                                ></p>
                                <div style=""width:240px; margin: auto;"">
                                    <img src=""images/D3.png"" style= ""width:200px""alt=""img"">
                                </div>
                            </div>","-163","","0","images/D3.png","","","","[""Rounded"",""Rectangular""]"
"","","","","","html-slider-response","151","282464","0.0-145.0","u1e2yt2s9f","NaN","<div style=""width:500px;"">
                                <p style=""font-size:50px; font-weight:bold;""
                                ></p>
                                <div style=""width:240px; margin: auto;"">
                                    <img src=""images/D57.png"" style= ""width:200px""alt=""img"">
                                </div>
                            </div>","112","","0","images/D57.png","","","","[""Rounded"",""Rectangular""]"
"","","","","","html-slider-response","152","284613","0.0-146.0","u1e2yt2s9f","NaN","<div style=""width:500px;"">
                                <p style=""font-size:50px; font-weight:bold;""
                                ></p>
                                <div style=""width:240px; margin: auto;"">
                                    <img src=""images/D52.png"" style= ""width:200px""alt=""img"">
                                </div>
                            </div>","129","","0","images/D52.png","","","","[""Rounded"",""Rectangular""]"
"","","","","","html-slider-response","153","287766","0.0-147.0","u1e2yt2s9f","NaN","<div style=""width:500px;"">
                                <p style=""font-size:50px; font-weight:bold;""
                                ></p>
                                <div style=""width:240px; margin: auto;"">
                                    <img src=""images/D75.png"" style= ""width:200px""alt=""img"">
                                </div>
                            </div>","-122","","0","images/D75.png","","","","[""Rounded"",""Rectangular""]"
"","","","","","html-slider-response","154","289295","0.0-148.0","u1e2yt2s9f","NaN","<div style=""width:500px;"">
                                <p style=""font-size:50px; font-weight:bold;""
                                ></p>
                                <div style=""width:240px; margin: auto;"">
                                    <img src=""images/D17.png"" style= ""width:200px""alt=""img"">
                                </div>
                            </div>","107","","0","images/D17.png","","","","[""Rounded"",""Rectangular""]"
"","","","","","html-slider-response","155","290881","0.0-149.0","u1e2yt2s9f","NaN","<div style=""width:500px;"">
                                <p style=""font-size:50px; font-weight:bold;""
                                ></p>
                                <div style=""width:240px; margin: auto;"">
                                    <img src=""images/D85.png"" style= ""width:200px""alt=""img"">
                                </div>
                            </div>","122","","0","images/D85.png","","","","[""Rounded"",""Rectangular""]"
"","","","","","html-slider-response","156","292446","0.0-150.0","u1e2yt2s9f","NaN","<div style=""width:500px;"">
                                <p style=""font-size:50px; font-weight:bold;""
                                ></p>
                                <div style=""width:240px; margin: auto;"">
                                    <img src=""images/D47.png"" style= ""width:200px""alt=""img"">
                                </div>
                            </div>","131","","0","images/D47.png","","","","[""Rounded"",""Rectangular""]"
"","","","","","html-slider-response","157","294080","0.0-151.0","u1e2yt2s9f","NaN","<div style=""width:500px;"">
                                <p style=""font-size:50px; font-weight:bold;""
                                ></p>
                                <div style=""width:240px; margin: auto;"">
                                    <img src=""images/D96.png"" style= ""width:200px""alt=""img"">
                                </div>
                            </div>","115","","0","images/D96.png","","","","[""Rounded"",""Rectangular""]"
"","","","","","html-slider-response","158","296231","0.0-152.0","u1e2yt2s9f","NaN","<div style=""width:500px;"">
                                <p style=""font-size:50px; font-weight:bold;""
                                ></p>
                                <div style=""width:240px; margin: auto;"">
                                    <img src=""images/D105.png"" style= ""width:200px""alt=""img"">
                                </div>
                            </div>","120","","0","images/D105.png","","","","[""Rounded"",""Rectangular""]"
"","","","","","html-slider-response","159","298062","0.0-153.0","u1e2yt2s9f","NaN","<div style=""width:500px;"">
                                <p style=""font-size:50px; font-weight:bold;""
                                ></p>
                                <div style=""width:240px; margin: auto;"">
                                    <img src=""images/D103.png"" style= ""width:200px""alt=""img"">
                                </div>
                            </div>","103","","0","images/D103.png","","","","[""Rounded"",""Rectangular""]"
"","","","","","html-slider-response","160","300446","0.0-154.0","u1e2yt2s9f","NaN","<div style=""width:500px;"">
                                <p style=""font-size:50px; font-weight:bold;""
                                ></p>
                                <div style=""width:240px; margin: auto;"">
                                    <img src=""images/D1.png"" style= ""width:200px""alt=""img"">
                                </div>
                            </div>","98","","0","images/D1.png","","","","[""Rounded"",""Rectangular""]"
"","","","","","html-slider-response","161","302813","0.0-155.0","u1e2yt2s9f","NaN","<div style=""width:500px;"">
                                <p style=""font-size:50px; font-weight:bold;""
                                ></p>
                                <div style=""width:240px; margin: auto;"">
                                    <img src=""images/D34.png"" style= ""width:200px""alt=""img"">
                                </div>
                            </div>","-124","","0","images/D34.png","","","","[""Rounded"",""Rectangular""]"
"","","","","","html-slider-response","162","304379","0.0-156.0","u1e2yt2s9f","NaN","<div style=""width:500px;"">
                                <p style=""font-size:50px; font-weight:bold;""
                                ></p>
                                <div style=""width:240px; margin: auto;"">
                                    <img src=""images/D94.png"" style= ""width:200px""alt=""img"">
                                </div>
                            </div>","107","","0","images/D94.png","","","","[""Rounded"",""Rectangular""]"
"","","","","","html-slider-response","163","306204","0.0-157.0","u1e2yt2s9f","NaN","<div style=""width:500px;"">
                                <p style=""font-size:50px; font-weight:bold;""
                                ></p>
                                <div style=""width:240px; margin: auto;"">
                                    <img src=""images/D95.png"" style= ""width:200px""alt=""img"">
                                </div>
                            </div>","103","","0","images/D95.png","","","","[""Rounded"",""Rectangular""]"
"","","","","","html-slider-response","164","353631","0.0-158.0","u1e2yt2s9f","NaN","<div style=""width:500px;"">
                                <p style=""font-size:50px; font-weight:bold;""
                                ></p>
                                <div style=""width:240px; margin: auto;"">
                                    <img src=""images/D14.png"" style= ""width:200px""alt=""img"">
                                </div>
                            </div>","168","","0","images/D14.png","","","","[""Rounded"",""Rectangular""]"
"","","","","","html-slider-response","165","355128","0.0-159.0","u1e2yt2s9f","NaN","<div style=""width:500px;"">
                                <p style=""font-size:50px; font-weight:bold;""
                                ></p>
                                <div style=""width:240px; margin: auto;"">
                                    <img src=""images/D21.png"" style= ""width:200px""alt=""img"">
                                </div>
                            </div>","-87","","0","images/D21.png","","","","[""Rounded"",""Rectangular""]"
"","","","","","html-slider-response","166","357263","0.0-160.0","u1e2yt2s9f","NaN","<div style=""width:500px;"">
                                <p style=""font-size:50px; font-weight:bold;""
                                ></p>
                                <div style=""width:240px; margin: auto;"">
                                    <img src=""images/D26.png"" style= ""width:200px""alt=""img"">
                                </div>
                            </div>","98","","0","images/D26.png","","","","[""Rounded"",""Rectangular""]"
"","","","","","html-slider-response","167","358629","0.0-161.0","u1e2yt2s9f","NaN","<div style=""width:500px;"">
                                <p style=""font-size:50px; font-weight:bold;""
                                ></p>
                                <div style=""width:240px; margin: auto;"">
                                    <img src=""images/D76.png"" style= ""width:200px""alt=""img"">
                                </div>
                            </div>","109","","0","images/D76.png","","","","[""Rounded"",""Rectangular""]"
"","","","","","html-slider-response","168","360015","0.0-162.0","u1e2yt2s9f","NaN","<div style=""width:500px;"">
                                <p style=""font-size:50px; font-weight:bold;""
                                ></p>
                                <div style=""width:240px; margin: auto;"">
                                    <img src=""images/D80.png"" style= ""width:200px""alt=""img"">
                                </div>
                            </div>","-105","","0","images/D80.png","","","","[""Rounded"",""Rectangular""]"
"","","","","","html-slider-response","169","361346","0.0-163.0","u1e2yt2s9f","NaN","<div style=""width:500px;"">
                                <p style=""font-size:50px; font-weight:bold;""
                                ></p>
                                <div style=""width:240px; margin: auto;"">
                                    <img src=""images/D19.png"" style= ""width:200px""alt=""img"">
                                </div>
                            </div>","93","","0","images/D19.png","","","","[""Rounded"",""Rectangular""]"
"","","","","","html-slider-response","170","362547","0.0-164.0","u1e2yt2s9f","NaN","<div style=""width:500px;"">
                                <p style=""font-size:50px; font-weight:bold;""
                                ></p>
                                <div style=""width:240px; margin: auto;"">
                                    <img src=""images/D106.png"" style= ""width:200px""alt=""img"">
                                </div>
                            </div>","-138","","0","images/D106.png","","","","[""Rounded"",""Rectangular""]"
"","","","","","html-slider-response","171","363813","0.0-165.0","u1e2yt2s9f","NaN","<div style=""width:500px;"">
                                <p style=""font-size:50px; font-weight:bold;""
                                ></p>
                                <div style=""width:240px; margin: auto;"">
                                    <img src=""images/D55.png"" style= ""width:200px""alt=""img"">
                                </div>
                            </div>","68","","0","images/D55.png","","","","[""Rounded"",""Rectangular""]"
"","","","","","html-slider-response","172","365079","0.0-166.0","u1e2yt2s9f","NaN","<div style=""width:500px;"">
                                <p style=""font-size:50px; font-weight:bold;""
                                ></p>
                                <div style=""width:240px; margin: auto;"">
                                    <img src=""images/D79.png"" style= ""width:200px""alt=""img"">
                                </div>
                            </div>","123","","0","images/D79.png","","","","[""Rounded"",""Rectangular""]"
"","","","","","html-slider-response","173","367212","0.0-167.0","u1e2yt2s9f","NaN","<div style=""width:500px;"">
                                <p style=""font-size:50px; font-weight:bold;""
                                ></p>
                                <div style=""width:240px; margin: auto;"">
                                    <img src=""images/D8.png"" style= ""width:200px""alt=""img"">
                                </div>
                            </div>","-64","","0","images/D8.png","","","","[""Rounded"",""Rectangular""]"
"","","","","","html-slider-response","174","368831","0.0-168.0","u1e2yt2s9f","NaN","<div style=""width:500px;"">
                                <p style=""font-size:50px; font-weight:bold;""
                                ></p>
                                <div style=""width:240px; margin: auto;"">
                                    <img src=""images/D101.png"" style= ""width:200px""alt=""img"">
                                </div>
                            </div>","-125","","0","images/D101.png","","","","[""Rounded"",""Rectangular""]"
"","","","","","html-slider-response","175","370582","0.0-169.0","u1e2yt2s9f","NaN","<div style=""width:500px;"">
                                <p style=""font-size:50px; font-weight:bold;""
                                ></p>
                                <div style=""width:240px; margin: auto;"">
                                    <img src=""images/D81.png"" style= ""width:200px""alt=""img"">
                                </div>
                            </div>","118","","0","images/D81.png","","","","[""Rounded"",""Rectangular""]"
"","","","","","html-slider-response","176","372229","0.0-170.0","u1e2yt2s9f","NaN","<div style=""width:500px;"">
                                <p style=""font-size:50px; font-weight:bold;""
                                ></p>
                                <div style=""width:240px; margin: auto;"">
                                    <img src=""images/D104.png"" style= ""width:200px""alt=""img"">
                                </div>
                            </div>","174","","0","images/D104.png","","","","[""Rounded"",""Rectangular""]"
"","","","","","html-slider-response","177","374613","0.0-171.0","u1e2yt2s9f","NaN","<div style=""width:500px;"">
                                <p style=""font-size:50px; font-weight:bold;""
                                ></p>
                                <div style=""width:240px; margin: auto;"">
                                    <img src=""images/D66.png"" style= ""width:200px""alt=""img"">
                                </div>
                            </div>","-158","","0","images/D66.png","","","","[""Rounded"",""Rectangular""]"
"","","","","","html-slider-response","178","376379","0.0-172.0","u1e2yt2s9f","NaN","<div style=""width:500px;"">
                                <p style=""font-size:50px; font-weight:bold;""
                                ></p>
                                <div style=""width:240px; margin: auto;"">
                                    <img src=""images/D37.png"" style= ""width:200px""alt=""img"">
                                </div>
                            </div>","135","","0","images/D37.png","","","","[""Rounded"",""Rectangular""]"
"","","","","","html-slider-response","179","378396","0.0-173.0","u1e2yt2s9f","NaN","<div style=""width:500px;"">
                                <p style=""font-size:50px; font-weight:bold;""
                                ></p>
                                <div style=""width:240px; margin: auto;"">
                                    <img src=""images/D49.png"" style= ""width:200px""alt=""img"">
                                </div>
                            </div>","98","","0","images/D49.png","","","","[""Rounded"",""Rectangular""]"
"","","","","","html-slider-response","180","381647","0.0-174.0","u1e2yt2s9f","NaN","<div style=""width:500px;"">
                                <p style=""font-size:50px; font-weight:bold;""
                                ></p>
                                <div style=""width:240px; margin: auto;"">
                                    <img src=""images/D64.png"" style= ""width:200px""alt=""img"">
                                </div>
                            </div>","98","","0","images/D64.png","","","","[""Rounded"",""Rectangular""]"
"","","","","","html-slider-response","181","383828","0.0-175.0","u1e2yt2s9f","NaN","<div style=""width:500px;"">
                                <p style=""font-size:50px; font-weight:bold;""
                                ></p>
                                <div style=""width:240px; margin: auto;"">
                                    <img src=""images/D11.png"" style= ""width:200px""alt=""img"">
                                </div>
                            </div>","134","","0","images/D11.png","","","","[""Rounded"",""Rectangular""]"
"","","","","","html-slider-response","182","386229","0.0-176.0","u1e2yt2s9f","NaN","<div style=""width:500px;"">
                                <p style=""font-size:50px; font-weight:bold;""
                                ></p>
                                <div style=""width:240px; margin: auto;"">
                                    <img src=""images/D84.png"" style= ""width:200px""alt=""img"">
                                </div>
                            </div>","132","","0","images/D84.png","","","","[""Rounded"",""Rectangular""]"
"","","","","","html-slider-response","183","388197","0.0-177.0","u1e2yt2s9f","NaN","<div style=""width:500px;"">
                                <p style=""font-size:50px; font-weight:bold;""
                                ></p>
                                <div style=""width:240px; margin: auto;"">
                                    <img src=""images/D74.png"" style= ""width:200px""alt=""img"">
                                </div>
                            </div>","-139","","0","images/D74.png","","","","[""Rounded"",""Rectangular""]"
"","","","","","html-slider-response","184","390613","0.0-178.0","u1e2yt2s9f","NaN","<div style=""width:500px;"">
                                <p style=""font-size:50px; font-weight:bold;""
                                ></p>
                                <div style=""width:240px; margin: auto;"">
                                    <img src=""images/D18.png"" style= ""width:200px""alt=""img"">
                                </div>
                            </div>","126","","0","images/D18.png","","","","[""Rounded"",""Rectangular""]"
"","","","","","html-slider-response","185","392746","0.0-179.0","u1e2yt2s9f","NaN","<div style=""width:500px;"">
                                <p style=""font-size:50px; font-weight:bold;""
                                ></p>
                                <div style=""width:240px; margin: auto;"">
                                    <img src=""images/D20.png"" style= ""width:200px""alt=""img"">
                                </div>
                            </div>","162","","0","images/D20.png","","","","[""Rounded"",""Rectangular""]"
"","","","","","html-slider-response","186","395246","0.0-180.0","u1e2yt2s9f","NaN","<div style=""width:500px;"">
                                <p style=""font-size:50px; font-weight:bold;""
                                ></p>
                                <div style=""width:240px; margin: auto;"">
                                    <img src=""images/D77.png"" style= ""width:200px""alt=""img"">
                                </div>
                            </div>","146","","0","images/D77.png","","","","[""Rounded"",""Rectangular""]"
"","","","","","html-slider-response","187","397429","0.0-181.0","u1e2yt2s9f","NaN","<div style=""width:500px;"">
                                <p style=""font-size:50px; font-weight:bold;""
                                ></p>
