"success","timeout","failed_images","failed_audio","failed_video","trial_type","trial_index","time_elapsed","internal_node_id","subject_id","rt","stimulus","response","question_order","slider_start","image_path","practiceTrial","practiceTrialNum","correct","slider_labels"
"true","false","[]","[]","[]","preload","0","740","0.0-0.0","vw99l70wsx","","","","","","","","","",""
"","","","","","html-button-response","1","2915","0.0-1.0","vw99l70wsx","2174","<div style='text-align:center; font-size:20px; line-height:25px; width: 1200px;'>
                Welcome to our experiment! <br>
                <br>At the bottom of this screen, you will see a button that says 'Begin Experiment.
                <br>Please only click that button when you are ready to complete the 25 minute experiment in one sitting. <br>
                <br> Once you click that button, it will not be possible to restart the experiment. <br><br>","0","","","","","","",""
"true","","","","","fullscreen","2","4833","0.0-2.0","vw99l70wsx","915","","","","","","","","",""
"","","","","","survey-multi-select","3","13571","0.0-3.0","vw99l70wsx","8735","","{""Consent"":[""<strong>I consent</strong>""]}","[0]","","","","","",""
"","","","","","html-button-response","4","15050","0.0-4.0","vw99l70wsx","1478","Welcome! <p> This experiment involves two parts: demographic information, followed by the experimental task.<p> It will take about 25 minutes to complete both parts.","0","","","","","","",""
"","","","","","survey-text","5","19812","0.0-5.0","vw99l70wsx","4760","","{""Age"":""18"",""Gender"":""male"",""Race/ethnicity"":""asian""}","","","","","","",""
"","","","","","html-slider-response","6","22152","0.0-6.0","vw99l70wsx","2339","
                <div style='text-align:center; height: auto; margin-left=-100px; margin-bottom: -20px; font-size:20px; line-height:5px; width: 1200px;'>
                    <br>During this experiment, you will see a series of textures, one at a time, like the ones below: 
                </div>
                    <br>
                    <br>
                    <img src=""anchoring_visual_textures.png"" alt=""img"" style=""max-width:1200px; margin-left: -10px;"">
                </div>
                <div style=""clear: both;""></div>
                </div>
                    <div style='text-align:center; margin-left=-100px; font-size:20px; line-height:20px; width: 1200px; margin-top: -50px;'>
                    
                    <br> For each texture, you will be asked to rate where you think it falls on each of the response scales with the following endpoints:
                    </div>
                            <div style=""text-align: center; width: 1400px; "">
                                <p style=""font-size:20px; line-height:5px; ""><b>Blobby</b> versus <b>Stripey</b></p>
                                <p style=""font-size:20px; line-height:5px; ""><b>Rounded</b> versus <b>Rectangular</b></p>
                                <p style=""font-size:20px;line-height:5px;""><b>Coarse</b> versus <b>Fine</b></p>
                                <p style=""font-size:20px;line-height:5px; ""><b>Rough</b> versus <b>Smooth</b></p>
                                <p style=""font-size:20px;line-height:5px; ""><b>Random</b> versus <b>Non-Random</b></p>
                                <p style=""font-size:20px;line-height:5px;""><b>Hard</b> versus <b>Soft</b></p>
                            </div>
                            <div style='text-align:center; font-size:20px; line-height:20px; width: 1400px;'>
                    
                    Each trial will include one texture and one response scale. You will be asked to make your rating by sliding the cursor along a slider response scale like the one below.
                    <br><br> Before beginning, please look at the textures and scales. For each scale, think about the texture you associate most with the left endpoint. When you see that texture for that response scale, please click near the left of the scale.
                    <br><br> Now, please think about the texture you associate most with the right endpoint of each scale. When you see that texture for that response scale, please click near the right of the scale. 
                    <br><br> If you think a texture is not strongly associated with either endpoint of the scale, please click near the midpoint of the scale. Please use the full range of the scale. 
                    <br><br> You will be asked to rate each texture for a given scale before moving on to the next scale.
                    <br><br> Please press the 'Continue' button for instructions on how to use the slider.                     <br><br>
                ","null","","0","visual_textures_anchoring.png","true","","",""
"","","","","","html-button-response","7","23084","0.0-7.0","vw99l70wsx","932","<div style=""width:1200px; margin-top:-150px;""><p style=""text-align:center; font-size:24px;"">To move the slider, click and drag your cursor to the location of the scale where you would like to make your rating and then let go. <br><br> When you let go of the slider, your response will be recorded and the next trial will begin. <br><br><br>
                We are interested in your initial impressions of each texture and scale, so please go with your first intuition. <br><br>
                Before you begin the experiment, there will be four training trials for you to practice using the scale. <br><br><br><br></div>
                <div style=""width:1200px;""><p style=""text-align:center; font-size:20px;"">When you are ready to start the training trials, please click ""Continue"".</p></div>","0","","","","","","",""
"","","","","","html-slider-response","8","24645","0.0-8.0-0.0","vw99l70wsx","NaN","<div style=""width:500px;"">
                                <p style=""font-size:25px;"">Please move the slider all the way to the <br> right endpoint of the scale</p>

                                </div>
                            </div>","-81","","0","","true","0","false",""
"","","","","","html-button-response","9","26273","0.0-8.0-1.0","vw99l70wsx","1126","<p align='center'><b>Not quite!</b> The slider was not placed near the instructed locattion. Click on 'Continue' to try again. </p>","0","","","","","","",""
"","","","","","html-slider-response","10","27651","0.0-8.1-0.1","vw99l70wsx","NaN","<div style=""width:500px;"">
                                <p style=""font-size:25px;"">Please move the slider all the way to the <br> right endpoint of the scale</p>

                                </div>
                            </div>","200","","0","","true","0","true",""
"","","","","","html-button-response","11","28755","0.0-8.1-1.1","vw99l70wsx","601","<p align='center'><b>Good job!</b> Click on 'Continue' to proceed.</p>","0","","","","","","",""
"","","","","","html-slider-response","12","29784","0.0-9.0-0.0","vw99l70wsx","NaN","<div style=""width:500px;"">
                                <p style=""font-size:25px;"">Please move the slider all the way to the <br> left endpoint of the scale</p>

                                </div>
                            </div>","-200","","0","","true","1","true",""
"","","","","","html-button-response","13","31086","0.0-9.0-1.0","vw99l70wsx","801","<p align='center'><b>Good job!</b> Click on 'Continue' to proceed.</p>","0","","","","","","",""
"","","","","","html-slider-response","14","33253","0.0-10.0-0.0","vw99l70wsx","NaN","<div style=""width:500px;"">
                                <p style=""font-size:25px;"">Please move the slider halfway between the center and right endpoint of the scale</p>

                                </div>
                            </div>","109","","0","","true","2","true",""
"","","","","","html-button-response","15","34107","0.0-10.0-1.0","vw99l70wsx","354","<p align='center'><b>Good job!</b> Click on 'Continue' to proceed.</p>","0","","","","","","",""
"","","","","","html-slider-response","16","36156","0.0-11.0-0.0","vw99l70wsx","NaN","<div style=""width:500px;"">
                                <p style=""font-size:25px;"">Please move the slider halfway between the center and left endpoint of the scale</p>

                                </div>
                            </div>","-107","","0","","true","3","true",""
"","","","","","html-button-response","17","37187","0.0-11.0-1.0","vw99l70wsx","531","<p align='center'><b>Good job!</b> Click on 'Continue' to proceed.</p>","0","","","","","","",""
"","","","","","html-button-response","18","37895","0.0-12.0","vw99l70wsx","707","<div style=""width:800px; margin-top:-300px;""><p style=""text-align:center; font-size:22px; line-height:25px;""""> Great job! You've completed the practice trials.</div>
                     <div style=""width:800px; margin-top:-20px;""><p style=""text-align:center""><br><br> In the following trials, you will be asked to rate textures on each scale one-by-one. <br> You will be given opportunities to take breaks when you have completed each block of trials. There are six total blocks of trials. <br><br> Please click continue to begin the main task.<br><br><br> </div>","0","","","","","","",""
"","","","","","html-button-response","19","38443","0.0-13.0","vw99l70wsx","548","In the following trials, you will be asked to rate textures on the scale <b>Blobby</b> versus <b>Stripey</b>. Please click 'Continue' when you are ready proceed.","0","","","","","","",""
"","","","","","html-slider-response","20","40538","0.0-14.0","vw99l70wsx","NaN","<div style=""width:500px;"">
                                <p style=""font-size:50px; font-weight:bold;""
                                ></p>
                                <div style=""width:240px; margin: auto;"">
                                    <img src=""images/D26.png"" style= ""width:200px""alt=""img"">
                                </div>
                            </div>","200","","0","images/D26.png","","","","[""Blobby"",""Stripey""]"
"","","","","","html-slider-response","21","42032","0.0-15.0","vw99l70wsx","NaN","<div style=""width:500px;"">
                                <p style=""font-size:50px; font-weight:bold;""
                                ></p>
                                <div style=""width:240px; margin: auto;"">
                                    <img src=""images/D74.png"" style= ""width:200px""alt=""img"">
                                </div>
                            </div>","-87","","0","images/D74.png","","","","[""Blobby"",""Stripey""]"
"","","","","","html-slider-response","22","43409","0.0-16.0","vw99l70wsx","NaN","<div style=""width:500px;"">
                                <p style=""font-size:50px; font-weight:bold;""
                                ></p>
                                <div style=""width:240px; margin: auto;"">
                                    <img src=""images/D66.png"" style= ""width:200px""alt=""img"">
                                </div>
                            </div>","-69","","0","images/D66.png","","","","[""Blobby"",""Stripey""]"
"","","","","","html-slider-response","23","44779","0.0-17.0","vw99l70wsx","NaN","<div style=""width:500px;"">
                                <p style=""font-size:50px; font-weight:bold;""
                                ></p>
                                <div style=""width:240px; margin: auto;"">
                                    <img src=""images/D51.png"" style= ""width:200px""alt=""img"">
                                </div>
                            </div>","41","","0","images/D51.png","","","","[""Blobby"",""Stripey""]"
"","","","","","html-slider-response","24","46464","0.0-18.0","vw99l70wsx","NaN","<div style=""width:500px;"">
                                <p style=""font-size:50px; font-weight:bold;""
                                ></p>
                                <div style=""width:240px; margin: auto;"">
                                    <img src=""images/D84.png"" style= ""width:200px""alt=""img"">
                                </div>
                            </div>","30","","0","images/D84.png","","","","[""Blobby"",""Stripey""]"
"","","","","","html-slider-response","25","47824","0.0-19.0","vw99l70wsx","NaN","<div style=""width:500px;"">
                                <p style=""font-size:50px; font-weight:bold;""
                                ></p>
                                <div style=""width:240px; margin: auto;"">
                                    <img src=""images/D105.png"" style= ""width:200px""alt=""img"">
                                </div>
                            </div>","66","","0","images/D105.png","","","","[""Blobby"",""Stripey""]"
"","","","","","html-slider-response","26","49613","0.0-20.0","vw99l70wsx","NaN","<div style=""width:500px;"">
                                <p style=""font-size:50px; font-weight:bold;""
                                ></p>
                                <div style=""width:240px; margin: auto;"">
                                    <img src=""images/D82.png"" style= ""width:200px""alt=""img"">
                                </div>
                            </div>","98","","0","images/D82.png","","","","[""Blobby"",""Stripey""]"
"","","","","","html-slider-response","27","51228","0.0-21.0","vw99l70wsx","NaN","<div style=""width:500px;"">
                                <p style=""font-size:50px; font-weight:bold;""
                                ></p>
                                <div style=""width:240px; margin: auto;"">
                                    <img src=""images/D35.png"" style= ""width:200px""alt=""img"">
                                </div>
                            </div>","-70","","0","images/D35.png","","","","[""Blobby"",""Stripey""]"
"","","","","","html-slider-response","28","53392","0.0-22.0","vw99l70wsx","NaN","<div style=""width:500px;"">
                                <p style=""font-size:50px; font-weight:bold;""
                                ></p>
                                <div style=""width:240px; margin: auto;"">
                                    <img src=""images/D56.png"" style= ""width:200px""alt=""img"">
                                </div>
                            </div>","-42","","0","images/D56.png","","","","[""Blobby"",""Stripey""]"
"","","","","","html-slider-response","29","55021","0.0-23.0","vw99l70wsx","NaN","<div style=""width:500px;"">
                                <p style=""font-size:50px; font-weight:bold;""
                                ></p>
                                <div style=""width:240px; margin: auto;"">
                                    <img src=""images/D52.png"" style= ""width:200px""alt=""img"">
                                </div>
                            </div>","-84","","0","images/D52.png","","","","[""Blobby"",""Stripey""]"
"","","","","","html-slider-response","30","56598","0.0-24.0","vw99l70wsx","NaN","<div style=""width:500px;"">
                                <p style=""font-size:50px; font-weight:bold;""
                                ></p>
                                <div style=""width:240px; margin: auto;"">
                                    <img src=""images/D8.png"" style= ""width:200px""alt=""img"">
                                </div>
                            </div>","-53","","0","images/D8.png","","","","[""Blobby"",""Stripey""]"
"","","","","","html-slider-response","31","58323","0.0-25.0","vw99l70wsx","NaN","<div style=""width:500px;"">
                                <p style=""font-size:50px; font-weight:bold;""
                                ></p>
                                <div style=""width:240px; margin: auto;"">
                                    <img src=""images/D111.png"" style= ""width:200px""alt=""img"">
                                </div>
                            </div>","-42","","0","images/D111.png","","","","[""Blobby"",""Stripey""]"
"","","","","","html-slider-response","32","59692","0.0-26.0","vw99l70wsx","NaN","<div style=""width:500px;"">
                                <p style=""font-size:50px; font-weight:bold;""
                                ></p>
                                <div style=""width:240px; margin: auto;"">
                                    <img src=""images/D76.png"" style= ""width:200px""alt=""img"">
                                </div>
                            </div>","102","","0","images/D76.png","","","","[""Blobby"",""Stripey""]"
"","","","","","html-slider-response","33","61139","0.0-27.0","vw99l70wsx","NaN","<div style=""width:500px;"">
                                <p style=""font-size:50px; font-weight:bold;""
                                ></p>
                                <div style=""width:240px; margin: auto;"">
                                    <img src=""images/D102.png"" style= ""width:200px""alt=""img"">
                                </div>
                            </div>","-38","","0","images/D102.png","","","","[""Blobby"",""Stripey""]"
"","","","","","html-slider-response","34","62760","0.0-28.0","vw99l70wsx","NaN","<div style=""width:500px;"">
                                <p style=""font-size:50px; font-weight:bold;""
                                ></p>
                                <div style=""width:240px; margin: auto;"">
                                    <img src=""images/D29.png"" style= ""width:200px""alt=""img"">
                                </div>
                            </div>","-59","","0","images/D29.png","","","","[""Blobby"",""Stripey""]"
"","","","","","html-slider-response","35","64216","0.0-29.0","vw99l70wsx","NaN","<div style=""width:500px;"">
                                <p style=""font-size:50px; font-weight:bold;""
                                ></p>
                                <div style=""width:240px; margin: auto;"">
                                    <img src=""images/D80.png"" style= ""width:200px""alt=""img"">
                                </div>
                            </div>","-105","","0","images/D80.png","","","","[""Blobby"",""Stripey""]"
"","","","","","html-slider-response","36","65599","0.0-30.0","vw99l70wsx","NaN","<div style=""width:500px;"">
                                <p style=""font-size:50px; font-weight:bold;""
                                ></p>
                                <div style=""width:240px; margin: auto;"">
                                    <img src=""images/D1.png"" style= ""width:200px""alt=""img"">
                                </div>
                            </div>","-63","","0","images/D1.png","","","","[""Blobby"",""Stripey""]"
"","","","","","html-slider-response","37","66990","0.0-31.0","vw99l70wsx","NaN","<div style=""width:500px;"">
                                <p style=""font-size:50px; font-weight:bold;""
                                ></p>
                                <div style=""width:240px; margin: auto;"">
                                    <img src=""images/D48.png"" style= ""width:200px""alt=""img"">
                                </div>
                            </div>","-76","","0","images/D48.png","","","","[""Blobby"",""Stripey""]"
"","","","","","html-slider-response","38","69338","0.0-32.0","vw99l70wsx","NaN","<div style=""width:500px;"">
                                <p style=""font-size:50px; font-weight:bold;""
                                ></p>
                                <div style=""width:240px; margin: auto;"">
                                    <img src=""images/D103.png"" style= ""width:200px""alt=""img"">
                                </div>
                            </div>","145","","0","images/D103.png","","","","[""Blobby"",""Stripey""]"
"","","","","","html-slider-response","39","70578","0.0-33.0","vw99l70wsx","NaN","<div style=""width:500px;"">
                                <p style=""font-size:50px; font-weight:bold;""
                                ></p>
                                <div style=""width:240px; margin: auto;"">
                                    <img src=""images/D95.png"" style= ""width:200px""alt=""img"">
                                </div>
                            </div>","-69","","0","images/D95.png","","","","[""Blobby"",""Stripey""]"
"","","","","","html-slider-response","40","71866","0.0-34.0","vw99l70wsx","NaN","<div style=""width:500px;"">
                                <p style=""font-size:50px; font-weight:bold;""
                                ></p>
                                <div style=""width:240px; margin: auto;"">
                                    <img src=""images/D4.png"" style= ""width:200px""alt=""img"">
                                </div>
                            </div>","-55","","0","images/D4.png","","","","[""Blobby"",""Stripey""]"
"","","","","","html-slider-response","41","73458","0.0-35.0","vw99l70wsx","NaN","<div style=""width:500px;"">
                                <p style=""font-size:50px; font-weight:bold;""
                                ></p>
                                <div style=""width:240px; margin: auto;"">
                                    <img src=""images/D16.png"" style= ""width:200px""alt=""img"">
                                </div>
                            </div>","38","","0","images/D16.png","","","","[""Blobby"",""Stripey""]"
"","","","","","html-slider-response","42","74935","0.0-36.0","vw99l70wsx","NaN","<div style=""width:500px;"">
                                <p style=""font-size:50px; font-weight:bold;""
                                ></p>
                                <div style=""width:240px; margin: auto;"">
                                    <img src=""images/D53.png"" style= ""width:200px""alt=""img"">
                                </div>
                            </div>","-70","","0","images/D53.png","","","","[""Blobby"",""Stripey""]"
"","","","","","html-slider-response","43","76279","0.0-37.0","vw99l70wsx","NaN","<div style=""width:500px;"">
                                <p style=""font-size:50px; font-weight:bold;""
                                ></p>
                                <div style=""width:240px; margin: auto;"">
                                    <img src=""images/D3.png"" style= ""width:200px""alt=""img"">
                                </div>
                            </div>","-44","","0","images/D3.png","","","","[""Blobby"",""Stripey""]"
"","","","","","html-slider-response","44","77671","0.0-38.0","vw99l70wsx","NaN","<div style=""width:500px;"">
                                <p style=""font-size:50px; font-weight:bold;""
                                ></p>
                                <div style=""width:240px; margin: auto;"">
                                    <img src=""images/D68.png"" style= ""width:200px""alt=""img"">
                                </div>
                            </div>","41","","0","images/D68.png","","","","[""Blobby"",""Stripey""]"
"","","","","","html-slider-response","45","79126","0.0-39.0","vw99l70wsx","NaN","<div style=""width:500px;"">
                                <p style=""font-size:50px; font-weight:bold;""
                                ></p>
                                <div style=""width:240px; margin: auto;"">
                                    <img src=""images/D46.png"" style= ""width:200px""alt=""img"">
                                </div>
                            </div>","-50","","0","images/D46.png","","","","[""Blobby"",""Stripey""]"
"","","","","","html-slider-response","46","80550","0.0-40.0","vw99l70wsx","NaN","<div style=""width:500px;"">
                                <p style=""font-size:50px; font-weight:bold;""
                                ></p>
                                <div style=""width:240px; margin: auto;"">
                                    <img src=""images/D87.png"" style= ""width:200px""alt=""img"">
                                </div>
                            </div>","41","","0","images/D87.png","","","","[""Blobby"",""Stripey""]"
"","","","","","html-slider-response","47","81927","0.0-41.0","vw99l70wsx","NaN","<div style=""width:500px;"">
                                <p style=""font-size:50px; font-weight:bold;""
                                ></p>
                                <div style=""width:240px; margin: auto;"">
                                    <img src=""images/D22.png"" style= ""width:200px""alt=""img"">
                                </div>
                            </div>","-62","","0","images/D22.png","","","","[""Blobby"",""Stripey""]"
"","","","","","html-slider-response","48","83237","0.0-42.0","vw99l70wsx","NaN","<div style=""width:500px;"">
                                <p style=""font-size:50px; font-weight:bold;""
                                ></p>
                                <div style=""width:240px; margin: auto;"">
                                    <img src=""images/D11.png"" style= ""width:200px""alt=""img"">
                                </div>
                            </div>","87","","0","images/D11.png","","","","[""Blobby"",""Stripey""]"
"","","","","","html-slider-response","49","84718","0.0-43.0","vw99l70wsx","NaN","<div style=""width:500px;"">
                                <p style=""font-size:50px; font-weight:bold;""
                                ></p>
                                <div style=""width:240px; margin: auto;"">
                                    <img src=""images/D17.png"" style= ""width:200px""alt=""img"">
                                </div>
                            </div>","-60","","0","images/D17.png","","","","[""Blobby"",""Stripey""]"
"","","","","","html-slider-response","50","86164","0.0-44.0","vw99l70wsx","NaN","<div style=""width:500px;"">
                                <p style=""font-size:50px; font-weight:bold;""
                                ></p>
                                <div style=""width:240px; margin: auto;"">
                                    <img src=""images/D25.png"" style= ""width:200px""alt=""img"">
                                </div>
                            </div>","-40","","0","images/D25.png","","","","[""Blobby"",""Stripey""]"
"","","","","","html-slider-response","51","87668","0.0-45.0","vw99l70wsx","NaN","<div style=""width:500px;"">
                                <p style=""font-size:50px; font-weight:bold;""
                                ></p>
                                <div style=""width:240px; margin: auto;"">
                                    <img src=""images/D49.png"" style= ""width:200px""alt=""img"">
                                </div>
                            </div>","58","","0","images/D49.png","","","","[""Blobby"",""Stripey""]"
"","","","","","html-slider-response","52","88965","0.0-46.0","vw99l70wsx","NaN","<div style=""width:500px;"">
                                <p style=""font-size:50px; font-weight:bold;""
                                ></p>
                                <div style=""width:240px; margin: auto;"">
                                    <img src=""images/D75.png"" style= ""width:200px""alt=""img"">
                                </div>
                            </div>","-68","","0","images/D75.png","","","","[""Blobby"",""Stripey""]"
"","","","","","html-slider-response","53","90316","0.0-47.0","vw99l70wsx","NaN","<div style=""width:500px;"">
                                <p style=""font-size:50px; font-weight:bold;""
                                ></p>
                                <div style=""width:240px; margin: auto;"">
                                    <img src=""images/D37.png"" style= ""width:200px""alt=""img"">
                                </div>
                            </div>","76","","0","images/D37.png","","","","[""Blobby"",""Stripey""]"
"","","","","","html-slider-response","54","91693","0.0-48.0","vw99l70wsx","NaN","<div style=""width:500px;"">
                                <p style=""font-size:50px; font-weight:bold;""
                                ></p>
                                <div style=""width:240px; margin: auto;"">
                                    <img src=""images/D20.png"" style= ""width:200px""alt=""img"">
                                </div>
                            </div>","-35","","0","images/D20.png","","","","[""Blobby"",""Stripey""]"
"","","","","","html-slider-response","55","93125","0.0-49.0","vw99l70wsx","NaN","<div style=""width:500px;"">
                                <p style=""font-size:50px; font-weight:bold;""
                                ></p>
                                <div style=""width:240px; margin: auto;"">
                                    <img src=""images/D55.png"" style= ""width:200px""alt=""img"">
                                </div>
                            </div>","-51","","0","images/D55.png","","","","[""Blobby"",""Stripey""]"
"","","","","","html-slider-response","56","94787","0.0-50.0","vw99l70wsx","NaN","<div style=""width:500px;"">
                                <p style=""font-size:50px; font-weight:bold;""
                                ></p>
                                <div style=""width:240px; margin: auto;"">
                                    <img src=""images/D104.png"" style= ""width:200px""alt=""img"">
                                </div>
                            </div>","27","","0","images/D104.png","","","","[""Blobby"",""Stripey""]"
"","","","","","html-slider-response","57","96925","0.0-51.0","vw99l70wsx","NaN","<div style=""width:500px;"">
                                <p style=""font-size:50px; font-weight:bold;""
                                ></p>
                                <div style=""width:240px; margin: auto;"">
                                    <img src=""images/D14.png"" style= ""width:200px""alt=""img"">
                                </div>
                            </div>","-53","","0","images/D14.png","","","","[""Blobby"",""Stripey""]"
"","","","","","html-slider-response","58","99504","0.0-52.0","vw99l70wsx","NaN","<div style=""width:500px;"">
                                <p style=""font-size:50px; font-weight:bold;""
                                ></p>
                                <div style=""width:240px; margin: auto;"">
                                    <img src=""images/D65.png"" style= ""width:200px""alt=""img"">
                                </div>
                            </div>","-49","","0","images/D65.png","","","","[""Blobby"",""Stripey""]"
"","","","","","html-slider-response","59","100917","0.0-53.0","vw99l70wsx","NaN","<div style=""width:500px;"">
                                <p style=""font-size:50px; font-weight:bold;""
                                ></p>
                                <div style=""width:240px; margin: auto;"">
                                    <img src=""images/D24.png"" style= ""width:200px""alt=""img"">
                                </div>
                            </div>","54","","0","images/D24.png","","","","[""Blobby"",""Stripey""]"
"","","","","","html-slider-response","60","102246","0.0-54.0","vw99l70wsx","NaN","<div style=""width:500px;"">
                                <p style=""font-size:50px; font-weight:bold;""
                                ></p>
                                <div style=""width:240px; margin: auto;"">
                                    <img src=""images/D92.png"" style= ""width:200px""alt=""img"">
                                </div>
                            </div>","-50","","0","images/D92.png","","","","[""Blobby"",""Stripey""]"
"","","","","","html-slider-response","61","103606","0.0-55.0","vw99l70wsx","NaN","<div style=""width:500px;"">
                                <p style=""font-size:50px; font-weight:bold;""
                                ></p>
                                <div style=""width:240px; margin: auto;"">
                                    <img src=""images/D83.png"" style= ""width:200px""alt=""img"">
                                </div>
                            </div>","56","","0","images/D83.png","","","","[""Blobby"",""Stripey""]"
"","","","","","html-slider-response","62","104973","0.0-56.0","vw99l70wsx","NaN","<div style=""width:500px;"">
                                <p style=""font-size:50px; font-weight:bold;""
                                ></p>
                                <div style=""width:240px; margin: auto;"">
                                    <img src=""images/D6.png"" style= ""width:200px""alt=""img"">
                                </div>
                            </div>","-62","","0","images/D6.png","","","","[""Blobby"",""Stripey""]"
"","","","","","html-slider-response","63","106836","0.0-57.0","vw99l70wsx","NaN","<div style=""width:500px;"">
                                <p style=""font-size:50px; font-weight:bold;""
                                ></p>
                                <div style=""width:240px; margin: auto;"">
                                    <img src=""images/D47.png"" style= ""width:200px""alt=""img"">
                                </div>
                            </div>","-50","","0","images/D47.png","","","","[""Blobby"",""Stripey""]"
"","","","","","html-slider-response","64","108393","0.0-58.0","vw99l70wsx","NaN","<div style=""width:500px;"">
                                <p style=""font-size:50px; font-weight:bold;""
                                ></p>
                                <div style=""width:240px; margin: auto;"">
                                    <img src=""images/D85.png"" style= ""width:200px""alt=""img"">
                                </div>
                            </div>","74","","0","images/D85.png","","","","[""Blobby"",""Stripey""]"
"","","","","","html-slider-response","65","109768","0.0-59.0","vw99l70wsx","NaN","<div style=""width:500px;"">
                                <p style=""font-size:50px; font-weight:bold;""
                                ></p>
                                <div style=""width:240px; margin: auto;"">
                                    <img src=""images/D79.png"" style= ""width:200px""alt=""img"">
                                </div>
                            </div>","48","","0","images/D79.png","","","","[""Blobby"",""Stripey""]"
"","","","","","html-slider-response","66","110994","0.0-60.0","vw99l70wsx","NaN","<div style=""width:500px;"">
                                <p style=""font-size:50px; font-weight:bold;""
                                ></p>
                                <div style=""width:240px; margin: auto;"">
                                    <img src=""images/D32.png"" style= ""width:200px""alt=""img"">
                                </div>
                            </div>","-25","","0","images/D32.png","","","","[""Blobby"",""Stripey""]"
"","","","","","html-slider-response","67","112378","0.0-61.0","vw99l70wsx","NaN","<div style=""width:500px;"">
                                <p style=""font-size:50px; font-weight:bold;""
                                ></p>
                                <div style=""width:240px; margin: auto;"">
                                    <img src=""images/D36.png"" style= ""width:200px""alt=""img"">
                                </div>
                            </div>","-78","","0","images/D36.png","","","","[""Blobby"",""Stripey""]"
"","","","","","html-slider-response","68","113777","0.0-62.0","vw99l70wsx","NaN","<div style=""width:500px;"">
                                <p style=""font-size:50px; font-weight:bold;""
                                ></p>
                                <div style=""width:240px; margin: auto;"">
                                    <img src=""images/D94.png"" style= ""width:200px""alt=""img"">
                                </div>
                            </div>","-150","","0","images/D94.png","","","","[""Blobby"",""Stripey""]"
"","","","","","html-slider-response","69","115082","0.0-63.0","vw99l70wsx","NaN","<div style=""width:500px;"">
                                <p style=""font-size:50px; font-weight:bold;""
                                ></p>
                                <div style=""width:240px; margin: auto;"">
                                    <img src=""images/D18.png"" style= ""width:200px""alt=""img"">
                                </div>
                            </div>","-80","","0","images/D18.png","","","","[""Blobby"",""Stripey""]"
"","","","","","html-slider-response","70","116522","0.0-64.0","vw99l70wsx","NaN","<div style=""width:500px;"">
                                <p style=""font-size:50px; font-weight:bold;""
                                ></p>
                                <div style=""width:240px; margin: auto;"">
                                    <img src=""images/D96.png"" style= ""width:200px""alt=""img"">
                                </div>
                            </div>","-66","","0","images/D96.png","","","","[""Blobby"",""Stripey""]"
"","","","","","html-slider-response","71","117898","0.0-65.0","vw99l70wsx","NaN","<div style=""width:500px;"">
                                <p style=""font-size:50px; font-weight:bold;""
                                ></p>
                                <div style=""width:240px; margin: auto;"">
                                    <img src=""images/D19.png"" style= ""width:200px""alt=""img"">
                                </div>
                            </div>","-68","","0","images/D19.png","","","","[""Blobby"",""Stripey""]"
"","","","","","html-slider-response","72","119259","0.0-66.0","vw99l70wsx","NaN","<div style=""width:500px;"">
                                <p style=""font-size:50px; font-weight:bold;""
                                ></p>
                                <div style=""width:240px; margin: auto;"">
                                    <img src=""images/D77.png"" style= ""width:200px""alt=""img"">
                                </div>
                            </div>","-41","","0","images/D77.png","","","","[""Blobby"",""Stripey""]"
"","","","","","html-slider-response","73","120489","0.0-67.0","vw99l70wsx","NaN","<div style=""width:500px;"">
                                <p style=""font-size:50px; font-weight:bold;""
                                ></p>
                                <div style=""width:240px; margin: auto;"">
                                    <img src=""images/D106.png"" style= ""width:200px""alt=""img"">
                                </div>
                            </div>","77","","0","images/D106.png","","","","[""Blobby"",""Stripey""]"
"","","","","","html-slider-response","74","121786","0.0-68.0","vw99l70wsx","NaN","<div style=""width:500px;"">
                                <p style=""font-size:50px; font-weight:bold;""
                                ></p>
                                <div style=""width:240px; margin: auto;"">
                                    <img src=""images/D78.png"" style= ""width:200px""alt=""img"">
                                </div>
                            </div>","82","","0","images/D78.png","","","","[""Blobby"",""Stripey""]"
"","","","","","html-slider-response","75","122963","0.0-69.0","vw99l70wsx","NaN","<div style=""width:500px;"">
                                <p style=""font-size:50px; font-weight:bold;""
                                ></p>
                                <div style=""width:240px; margin: auto;"">
                                    <img src=""images/D101.png"" style= ""width:200px""alt=""img"">
                                </div>
                            </div>","-36","","0","images/D101.png","","","","[""Blobby"",""Stripey""]"
"","","","","","html-slider-response","76","124251","0.0-70.0","vw99l70wsx","NaN","<div style=""width:500px;"">
                                <p style=""font-size:50px; font-weight:bold;""
                                ></p>
                                <div style=""width:240px; margin: auto;"">
                                    <img src=""images/D64.png"" style= ""width:200px""alt=""img"">
                                </div>
                            </div>","-50","","0","images/D64.png","","","","[""Blobby"",""Stripey""]"
"","","","","","html-slider-response","77","125556","0.0-71.0","vw99l70wsx","NaN","<div style=""width:500px;"">
                                <p style=""font-size:50px; font-weight:bold;""
                                ></p>
                                <div style=""width:240px; margin: auto;"">
                                    <img src=""images/D34.png"" style= ""width:200px""alt=""img"">
                                </div>
                            </div>","-53","","0","images/D34.png","","","","[""Blobby"",""Stripey""]"
"","","","","","html-slider-response","78","126867","0.0-72.0","vw99l70wsx","NaN","<div style=""width:500px;"">
                                <p style=""font-size:50px; font-weight:bold;""
                                ></p>
                                <div style=""width:240px; margin: auto;"">
                                    <img src=""images/D21.png"" style= ""width:200px""alt=""img"">
                                </div>
                            </div>","82","","0","images/D21.png","","","","[""Blobby"",""Stripey""]"
"","","","","","html-slider-response","79","128030","0.0-73.0","vw99l70wsx","NaN","<div style=""width:500px;"">
                                <p style=""font-size:50px; font-weight:bold;""
                                ></p>
                                <div style=""width:240px; margin: auto;"">
                                    <img src=""images/D57.png"" style= ""width:200px""alt=""img"">
                                </div>
                            </div>","-57","","0","images/D57.png","","","","[""Blobby"",""Stripey""]"
"","","","","","html-slider-response","80","129253","0.0-74.0","vw99l70wsx","NaN","<div style=""width:500px;"">
                                <p style=""font-size:50px; font-weight:bold;""
                                ></p>
                                <div style=""width:240px; margin: auto;"">
                                    <img src=""images/D9.png"" style= ""width:200px""alt=""img"">
                                </div>
                            </div>","-73","","0","images/D9.png","","","","[""Blobby"",""Stripey""]"
"","","","","","html-slider-response","81","130804","0.0-75.0","vw99l70wsx","NaN","<div style=""width:500px;"">
                                <p style=""font-size:50px; font-weight:bold;""
                                ></p>
                                <div style=""width:240px; margin: auto;"">
                                    <img src=""images/D81.png"" style= ""width:200px""alt=""img"">
                                </div>
                            </div>","-56","","0","images/D81.png","","","","[""Blobby"",""Stripey""]"
"","","","","","html-button-response","82","134142","0.0-76.0","vw99l70wsx","2837","You have completed the first block of trials out of six. Please click 'Continue' when you are ready proceed.","0","","","","","","",""
"","","","","","html-button-response","83","135366","0.0-77.0","vw99l70wsx","1224","In the following trials, you will be asked to rate textures on the scale <b>Rounded</b> versus <b>Rectangular</b>. Please click 'Continue' when you are ready proceed.","0","","","","","","",""
"","","","","","html-slider-response","84","137015","0.0-78.0","vw99l70wsx","NaN","<div style=""width:500px;"">
                                <p style=""font-size:50px; font-weight:bold;""
                                ></p>
                                <div style=""width:240px; margin: auto;"">
                                    <img src=""images/D9.png"" style= ""width:200px""alt=""img"">
                                </div>
                            </div>","-93","","0","images/D9.png","","","","[""Rounded"",""Rectangular""]"
"","","","","","html-slider-response","85","138288","0.0-79.0","vw99l70wsx","NaN","<div style=""width:500px;"">
                                <p style=""font-size:50px; font-weight:bold;""
                                ></p>
                                <div style=""width:240px; margin: auto;"">
                                    <img src=""images/D64.png"" style= ""width:200px""alt=""img"">
                                </div>
                            </div>","58","","0","images/D64.png","","","","[""Rounded"",""Rectangular""]"
"","","","","","html-slider-response","86","139473","0.0-80.0","vw99l70wsx","NaN","<div style=""width:500px;"">
                                <p style=""font-size:50px; font-weight:bold;""
                                ></p>
                                <div style=""width:240px; margin: auto;"">
                                    <img src=""images/D6.png"" style= ""width:200px""alt=""img"">
                                </div>
                            </div>","-48","","0","images/D6.png","","","","[""Rounded"",""Rectangular""]"
"","","","","","html-slider-response","87","141303","0.0-81.0","vw99l70wsx","NaN","<div style=""width:500px;"">
                                <p style=""font-size:50px; font-weight:bold;""
                                ></p>
                                <div style=""width:240px; margin: auto;"">
                                    <img src=""images/D106.png"" style= ""width:200px""alt=""img"">
                                </div>
                            </div>","50","","0","images/D106.png","","","","[""Rounded"",""Rectangular""]"
"","","","","","html-slider-response","88","142630","0.0-82.0","vw99l70wsx","NaN","<div style=""width:500px;"">
                                <p style=""font-size:50px; font-weight:bold;""
                                ></p>
                                <div style=""width:240px; margin: auto;"">
                                    <img src=""images/D25.png"" style= ""width:200px""alt=""img"">
                                </div>
                            </div>","40","","0","images/D25.png","","","","[""Rounded"",""Rectangular""]"
"","","","","","html-slider-response","89","143943","0.0-83.0","vw99l70wsx","NaN","<div style=""width:500px;"">
                                <p style=""font-size:50px; font-weight:bold;""
                                ></p>
                                <div style=""width:240px; margin: auto;"">
                                    <img src=""images/D56.png"" style= ""width:200px""alt=""img"">
                                </div>
                            </div>","-41","","0","images/D56.png","","","","[""Rounded"",""Rectangular""]"
"","","","","","html-slider-response","90","145637","0.0-84.0","vw99l70wsx","NaN","<div style=""width:500px;"">
                                <p style=""font-size:50px; font-weight:bold;""
                                ></p>
                                <div style=""width:240px; margin: auto;"">
                                    <img src=""images/D14.png"" style= ""width:200px""alt=""img"">
                                </div>
                            </div>","-77","","0","images/D14.png","","","","[""Rounded"",""Rectangular""]"
"","","","","","html-slider-response","91","147298","0.0-85.0","vw99l70wsx","NaN","<div style=""width:500px;"">
                                <p style=""font-size:50px; font-weight:bold;""
                                ></p>
                                <div style=""width:240px; margin: auto;"">
                                    <img src=""images/D48.png"" style= ""width:200px""alt=""img"">
                                </div>
                            </div>","64","","0","images/D48.png","","","","[""Rounded"",""Rectangular""]"
"","","","","","html-slider-response","92","148865","0.0-86.0","vw99l70wsx","NaN","<div style=""width:500px;"">
                                <p style=""font-size:50px; font-weight:bold;""
                                ></p>
                                <div style=""width:240px; margin: auto;"">
                                    <img src=""images/D78.png"" style= ""width:200px""alt=""img"">
                                </div>
                            </div>","39","","0","images/D78.png","","","","[""Rounded"",""Rectangular""]"
"","","","","","html-slider-response","93","150233","0.0-87.0","vw99l70wsx","NaN","<div style=""width:500px;"">
                                <p style=""font-size:50px; font-weight:bold;""
                                ></p>
                                <div style=""width:240px; margin: auto;"">
                                    <img src=""images/D77.png"" style= ""width:200px""alt=""img"">
                                </div>
                            </div>","-53","","0","images/D77.png","","","","[""Rounded"",""Rectangular""]"
"","","","","","html-slider-response","94","151554","0.0-88.0","vw99l70wsx","NaN","<div style=""width:500px;"">
                                <p style=""font-size:50px; font-weight:bold;""
                                ></p>
                                <div style=""width:240px; margin: auto;"">
                                    <img src=""images/D81.png"" style= ""width:200px""alt=""img"">
                                </div>
                            </div>","-39","","0","images/D81.png","","","","[""Rounded"",""Rectangular""]"
"","","","","","html-slider-response","95","153319","0.0-89.0","vw99l70wsx","NaN","<div style=""width:500px;"">
                                <p style=""font-size:50px; font-weight:bold;""
                                ></p>
                                <div style=""width:240px; margin: auto;"">
                                    <img src=""images/D17.png"" style= ""width:200px""alt=""img"">
                                </div>
                            </div>","69","","0","images/D17.png","","","","[""Rounded"",""Rectangular""]"
"","","","","","html-slider-response","96","155078","0.0-90.0","vw99l70wsx","NaN","<div style=""width:500px;"">
                                <p style=""font-size:50px; font-weight:bold;""
                                ></p>
                                <div style=""width:240px; margin: auto;"">
                                    <img src=""images/D37.png"" style= ""width:200px""alt=""img"">
                                </div>
                            </div>","51","","0","images/D37.png","","","","[""Rounded"",""Rectangular""]"
"","","","","","html-slider-response","97","156524","0.0-91.0","vw99l70wsx","NaN","<div style=""width:500px;"">
                                <p style=""font-size:50px; font-weight:bold;""
                                ></p>
                                <div style=""width:240px; margin: auto;"">
                                    <img src=""images/D52.png"" style= ""width:200px""alt=""img"">
                                </div>
                            </div>","-33","","0","images/D52.png","","","","[""Rounded"",""Rectangular""]"
"","","","","","html-slider-response","98","158187","0.0-92.0","vw99l70wsx","NaN","<div style=""width:500px;"">
                                <p style=""font-size:50px; font-weight:bold;""
                                ></p>
                                <div style=""width:240px; margin: auto;"">
                                    <img src=""images/D20.png"" style= ""width:200px""alt=""img"">
                                </div>
                            </div>","-41","","0","images/D20.png","","","","[""Rounded"",""Rectangular""]"
"","","","","","html-slider-response","99","159674","0.0-93.0","vw99l70wsx","NaN","<div style=""width:500px;"">
                                <p style=""font-size:50px; font-weight:bold;""
                                ></p>
                                <div style=""width:240px; margin: auto;"">
                                    <img src=""images/D35.png"" style= ""width:200px""alt=""img"">
                                </div>
                            </div>","-50","","0","images/D35.png","","","","[""Rounded"",""Rectangular""]"
"","","","","","html-slider-response","100","161725","0.0-94.0","vw99l70wsx","NaN","<div style=""width:500px;"">
                                <p style=""font-size:50px; font-weight:bold;""
                                ></p>
                                <div style=""width:240px; margin: auto;"">
                                    <img src=""images/D19.png"" style= ""width:200px""alt=""img"">
                                </div>
                            </div>","-41","","0","images/D19.png","","","","[""Rounded"",""Rectangular""]"
"","","","","","html-slider-response","101","163292","0.0-95.0","vw99l70wsx","NaN","<div style=""width:500px;"">
                                <p style=""font-size:50px; font-weight:bold;""
                                ></p>
                                <div style=""width:240px; margin: auto;"">
                                    <img src=""images/D47.png"" style= ""width:200px""alt=""img"">
                                </div>
                            </div>","22","","0","images/D47.png","","","","[""Rounded"",""Rectangular""]"
"","","","","","html-slider-response","102","164556","0.0-96.0","vw99l70wsx","NaN","<div style=""width:500px;"">
                                <p style=""font-size:50px; font-weight:bold;""
                                ></p>
                                <div style=""width:240px; margin: auto;"">
                                    <img src=""images/D8.png"" style= ""width:200px""alt=""img"">
                                </div>
                            </div>","22","","0","images/D8.png","","","","[""Rounded"",""Rectangular""]"
"","","","","","html-slider-response","103","166037","0.0-97.0","vw99l70wsx","NaN","<div style=""width:500px;"">
                                <p style=""font-size:50px; font-weight:bold;""
                                ></p>
                                <div style=""width:240px; margin: auto;"">
                                    <img src=""images/D18.png"" style= ""width:200px""alt=""img"">
                                </div>
                            </div>","33","","0","images/D18.png","","","","[""Rounded"",""Rectangular""]"
"","","","","","html-slider-response","104","167564","0.0-98.0","vw99l70wsx","NaN","<div style=""width:500px;"">
                                <p style=""font-size:50px; font-weight:bold;""
                                ></p>
                                <div style=""width:240px; margin: auto;"">
                                    <img src=""images/D74.png"" style= ""width:200px""alt=""img"">
                                </div>
                            </div>","-28","","0","images/D74.png","","","","[""Rounded"",""Rectangular""]"
"","","","","","html-slider-response","105","169266","0.0-99.0","vw99l70wsx","NaN","<div style=""width:500px;"">
                                <p style=""font-size:50px; font-weight:bold;""
                                ></p>
                                <div style=""width:240px; margin: auto;"">
                                    <img src=""images/D103.png"" style= ""width:200px""alt=""img"">
                                </div>
                            </div>","54","","0","images/D103.png","","","","[""Rounded"",""Rectangular""]"
"","","","","","html-slider-response","106","170721","0.0-100.0","vw99l70wsx","NaN","<div style=""width:500px;"">
                                <p style=""font-size:50px; font-weight:bold;""
                                ></p>
                                <div style=""width:240px; margin: auto;"">
                                    <img src=""images/D34.png"" style= ""width:200px""alt=""img"">
                                </div>
                            </div>","-61","","0","images/D34.png","","","","[""Rounded"",""Rectangular""]"
"","","","","","html-slider-response","107","172375","0.0-101.0","vw99l70wsx","NaN","<div style=""width:500px;"">
                                <p style=""font-size:50px; font-weight:bold;""
                                ></p>
                                <div style=""width:240px; margin: auto;"">
                                    <img src=""images/D94.png"" style= ""width:200px""alt=""img"">
                                </div>
                            </div>","49","","0","images/D94.png","","","","[""Rounded"",""Rectangular""]"
"","","","","","html-slider-response","108","173933","0.0-102.0","vw99l70wsx","NaN","<div style=""width:500px;"">
                                <p style=""font-size:50px; font-weight:bold;""
                                ></p>
                                <div style=""width:240px; margin: auto;"">
                                    <img src=""images/D101.png"" style= ""width:200px""alt=""img"">
                                </div>
                            </div>","-56","","0","images/D101.png","","","","[""Rounded"",""Rectangular""]"
"","","","","","html-slider-response","109","175144","0.0-103.0","vw99l70wsx","NaN","<div style=""width:500px;"">
                                <p style=""font-size:50px; font-weight:bold;""
                                ></p>
                                <div style=""width:240px; margin: auto;"">
                                    <img src=""images/D75.png"" style= ""width:200px""alt=""img"">
                                </div>
                            </div>","-62","","0","images/D75.png","","","","[""Rounded"",""Rectangular""]"
"","","","","","html-slider-response","110","176534","0.0-104.0","vw99l70wsx","NaN","<div style=""width:500px;"">
                                <p style=""font-size:50px; font-weight:bold;""
                                ></p>
                                <div style=""width:240px; margin: auto;"">
                                    <img src=""images/D53.png"" style= ""width:200px""alt=""img"">
                                </div>
                            </div>","-92","","0","images/D53.png","","","","[""Rounded"",""Rectangular""]"
"","","","","","html-slider-response","111","178100","0.0-105.0","vw99l70wsx","NaN","<div style=""width:500px;"">
                                <p style=""font-size:50px; font-weight:bold;""
                                ></p>
                                <div style=""width:240px; margin: auto;"">
                                    <img src=""images/D36.png"" style= ""width:200px""alt=""img"">
                                </div>
                            </div>","-43","","0","images/D36.png","","","","[""Rounded"",""Rectangular""]"
"","","","","","html-slider-response","112","190155","0.0-106.0","vw99l70wsx","NaN","<div style=""width:500px;"">
                                <p style=""font-size:50px; font-weight:bold;""
                                ></p>
                                <div style=""width:240px; margin: auto;"">
                                    <img src=""images/D11.png"" style= ""width:200px""alt=""img"">
                                </div>
                            </div>","-95","","0","images/D11.png","","","","[""Rounded"",""Rectangular""]"
"","","","","","html-slider-response","113","191564","0.0-107.0","vw99l70wsx","NaN","<div style=""width:500px;"">
                                <p style=""font-size:50px; font-weight:bold;""
                                ></p>
                                <div style=""width:240px; margin: auto;"">
                                    <img src=""images/D85.png"" style= ""width:200px""alt=""img"">
                                </div>
                            </div>","184","","0","images/D85.png","","","","[""Rounded"",""Rectangular""]"
"","","","","","html-slider-response","114","192876","0.0-108.0","vw99l70wsx","NaN","<div style=""width:500px;"">
                                <p style=""font-size:50px; font-weight:bold;""
                                ></p>
                                <div style=""width:240px; margin: auto;"">
                                    <img src=""images/D26.png"" style= ""width:200px""alt=""img"">
                                </div>
                            </div>","65","","0","images/D26.png","","","","[""Rounded"",""Rectangular""]"
"","","","","","html-slider-response","115","195001","0.0-109.0","vw99l70wsx","NaN","<div style=""width:500px;"">
                                <p style=""font-size:50px; font-weight:bold;""
                                ></p>
                                <div style=""width:240px; margin: auto;"">
                                    <img src=""images/D24.png"" style= ""width:200px""alt=""img"">
                                </div>
                            </div>","-62","","0","images/D24.png","","","","[""Rounded"",""Rectangular""]"
"","","","","","html-slider-response","116","196401","0.0-110.0","vw99l70wsx","NaN","<div style=""width:500px;"">
                                <p style=""font-size:50px; font-weight:bold;""
                                ></p>
                                <div style=""width:240px; margin: auto;"">
                                    <img src=""images/D65.png"" style= ""width:200px""alt=""img"">
                                </div>
                            </div>","-51","","0","images/D65.png","","","","[""Rounded"",""Rectangular""]"
"","","","","","html-slider-response","117","197722","0.0-111.0","vw99l70wsx","NaN","<div style=""width:500px;"">
                                <p style=""font-size:50px; font-weight:bold;""
                                ></p>
                                <div style=""width:240px; margin: auto;"">
                                    <img src=""images/D111.png"" style= ""width:200px""alt=""img"">
                                </div>
                            </div>","-51","","0","images/D111.png","","","","[""Rounded"",""Rectangular""]"
"","","","","","html-slider-response","118","199049","0.0-112.0","vw99l70wsx","NaN","<div style=""width:500px;"">
                                <p style=""font-size:50px; font-weight:bold;""
                                ></p>
                                <div style=""width:240px; margin: auto;"">
                                    <img src=""images/D96.png"" style= ""width:200px""alt=""img"">
                                </div>
                            </div>","122","","0","images/D96.png","","","","[""Rounded"",""Rectangular""]"
"","","","","","html-slider-response","119","200147","0.0-113.0","vw99l70wsx","NaN","<div style=""width:500px;"">
                                <p style=""font-size:50px; font-weight:bold;""
                                ></p>
                                <div style=""width:240px; margin: auto;"">
                                    <img src=""images/D82.png"" style= ""width:200px""alt=""img"">
                                </div>
                            </div>","-106","","0","images/D82.png","","","","[""Rounded"",""Rectangular""]"
"","","","","","html-slider-response","120","201388","0.0-114.0","vw99l70wsx","NaN","<div style=""width:500px;"">
                                <p style=""font-size:50px; font-weight:bold;""
                                ></p>
                                <div style=""width:240px; margin: auto;"">
                                    <img src=""images/D79.png"" style= ""width:200px""alt=""img"">
                                </div>
                            </div>","96","","0","images/D79.png","","","","[""Rounded"",""Rectangular""]"
"","","","","","html-slider-response","121","202699","0.0-115.0","vw99l70wsx","NaN","<div style=""width:500px;"">
                                <p style=""font-size:50px; font-weight:bold;""
                                ></p>
                                <div style=""width:240px; margin: auto;"">
                                    <img src=""images/D84.png"" style= ""width:200px""alt=""img"">
                                </div>
                            </div>","-68","","0","images/D84.png","","","","[""Rounded"",""Rectangular""]"
"","","","","","html-slider-response","122","204075","0.0-116.0","vw99l70wsx","NaN","<div style=""width:500px;"">
                                <p style=""font-size:50px; font-weight:bold;""
                                ></p>
                                <div style=""width:240px; margin: auto;"">
                                    <img src=""images/D83.png"" style= ""width:200px""alt=""img"">
                                </div>
                            </div>","84","","0","images/D83.png","","","","[""Rounded"",""Rectangular""]"
"","","","","","html-slider-response","123","205299","0.0-117.0","vw99l70wsx","NaN","<div style=""width:500px;"">
                                <p style=""font-size:50px; font-weight:bold;""
                                ></p>
                                <div style=""width:240px; margin: auto;"">
                                    <img src=""images/D76.png"" style= ""width:200px""alt=""img"">
                                </div>
                            </div>","98","","0","images/D76.png","","","","[""Rounded"",""Rectangular""]"
"","","","","","html-slider-response","124","206629","0.0-118.0","vw99l70wsx","NaN","<div style=""width:500px;"">
                                <p style=""font-size:50px; font-weight:bold;""
                                ></p>
                                <div style=""width:240px; margin: auto;"">
                                    <img src=""images/D55.png"" style= ""width:200px""alt=""img"">
                                </div>
                            </div>","-106","","0","images/D55.png","","","","[""Rounded"",""Rectangular""]"
"","","","","","html-slider-response","125","207901","0.0-119.0","vw99l70wsx","NaN","<div style=""width:500px;"">
                                <p style=""font-size:50px; font-weight:bold;""
                                ></p>
                                <div style=""width:240px; margin: auto;"">
                                    <img src=""images/D92.png"" style= ""width:200px""alt=""img"">
                                </div>
                            </div>","-76","","0","images/D92.png","","","","[""Rounded"",""Rectangular""]"
"","","","","","html-slider-response","126","209197","0.0-120.0","vw99l70wsx","NaN","<div style=""width:500px;"">
                                <p style=""font-size:50px; font-weight:bold;""
                                ></p>
                                <div style=""width:240px; margin: auto;"">
                                    <img src=""images/D3.png"" style= ""width:200px""alt=""img"">
                                </div>
                            </div>","-94","","0","images/D3.png","","","","[""Rounded"",""Rectangular""]"
"","","","","","html-slider-response","127","210526","0.0-121.0","vw99l70wsx","NaN","<div style=""width:500px;"">
                                <p style=""font-size:50px; font-weight:bold;""
                                ></p>
                                <div style=""width:240px; margin: auto;"">
                                    <img src=""images/D16.png"" style= ""width:200px""alt=""img"">
                                </div>
                            </div>","84","","0","images/D16.png","","","","[""Rounded"",""Rectangular""]"
"","","","","","html-slider-response","128","211940","0.0-122.0","vw99l70wsx","NaN","<div style=""width:500px;"">
                                <p style=""font-size:50px; font-weight:bold;""
                                ></p>
                                <div style=""width:240px; margin: auto;"">
                                    <img src=""images/D104.png"" style= ""width:200px""alt=""img"">
                                </div>
                            </div>","-108","","0","images/D104.png","","","","[""Rounded"",""Rectangular""]"
"","","","","","html-slider-response","129","213421","0.0-123.0","vw99l70wsx","NaN","<div style=""width:500px;"">
                                <p style=""font-size:50px; font-weight:bold;""
                                ></p>
                                <div style=""width:240px; margin: auto;"">
                                    <img src=""images/D57.png"" style= ""width:200px""alt=""img"">
                                </div>
                            </div>","-70","","0","images/D57.png","","","","[""Rounded"",""Rectangular""]"
"","","","","","html-slider-response","130","214764","0.0-124.0","vw99l70wsx","NaN","<div style=""width:500px;"">
                                <p style=""font-size:50px; font-weight:bold;""
                                ></p>
                                <div style=""width:240px; margin: auto;"">
                                    <img src=""images/D68.png"" style= ""width:200px""alt=""img"">
                                </div>
                            </div>","51","","0","images/D68.png","","","","[""Rounded"",""Rectangular""]"
"","","","","","html-slider-response","131","216021","0.0-125.0","vw99l70wsx","NaN","<div style=""width:500px;"">
                                <p style=""font-size:50px; font-weight:bold;""
                                ></p>
                                <div style=""width:240px; margin: auto;"">
                                    <img src=""images/D102.png"" style= ""width:200px""alt=""img"">
                                </div>
                            </div>","-75","","0","images/D102.png","","","","[""Rounded"",""Rectangular""]"
"","","","","","html-slider-response","132","217381","0.0-126.0","vw99l70wsx","NaN","<div style=""width:500px;"">
                                <p style=""font-size:50px; font-weight:bold;""
                                ></p>
                                <div style=""width:240px; margin: auto;"">
                                    <img src=""images/D51.png"" style= ""width:200px""alt=""img"">
                                </div>
                            </div>","54","","0","images/D51.png","","","","[""Rounded"",""Rectangular""]"
"","","","","","html-slider-response","133","218723","0.0-127.0","vw99l70wsx","NaN","<div style=""width:500px;"">
                                <p style=""font-size:50px; font-weight:bold;""
                                ></p>
                                <div style=""width:240px; margin: auto;"">
                                    <img src=""images/D95.png"" style= ""width:200px""alt=""img"">
                                </div>
                            </div>","81","","0","images/D95.png","","","","[""Rounded"",""Rectangular""]"
"","","","","","html-slider-response","134","220634","0.0-128.0","vw99l70wsx","NaN","<div style=""width:500px;"">
                                <p style=""font-size:50px; font-weight:bold;""
                                ></p>
                                <div style=""width:240px; margin: auto;"">
                                    <img src=""images/D46.png"" style= ""width:200px""alt=""img"">
                                </div>
                            </div>","-134","","0","images/D46.png","","","","[""Rounded"",""Rectangular""]"
"","","","","","html-slider-response","135","221881","0.0-129.0","vw99l70wsx","NaN","<div style=""width:500px;"">
                                <p style=""font-size:50px; font-weight:bold;""
                                ></p>
                                <div style=""width:240px; margin: auto;"">
                                    <img src=""images/D4.png"" style= ""width:200px""alt=""img"">
                                </div>
                            </div>","-106","","0","images/D4.png","","","","[""Rounded"",""Rectangular""]"
"","","","","","html-slider-response","136","238439","0.0-130.0","vw99l70wsx","NaN","<div style=""width:500px;"">
                                <p style=""font-size:50px; font-weight:bold;""
                                ></p>
                                <div style=""width:240px; margin: auto;"">
                                    <img src=""images/D1.png"" style= ""width:200px""alt=""img"">
                                </div>
                            </div>","93","","0","images/D1.png","","","","[""Rounded"",""Rectangular""]"
"","","","","","html-slider-response","137","241072","0.0-131.0","vw99l70wsx","NaN","<div style=""width:500px;"">
                                <p style=""font-size:50px; font-weight:bold;""
                                ></p>
                                <div style=""width:240px; margin: auto;"">
                                    <img src=""images/D32.png"" style= ""width:200px""alt=""img"">
                                </div>
                            </div>","-82","","0","images/D32.png","","","","[""Rounded"",""Rectangular""]"
"","","","","","html-slider-response","138","264953","0.0-132.0","vw99l70wsx","NaN","<div style=""width:500px;"">
                                <p style=""font-size:50px; font-weight:bold;""
                                ></p>
                                <div style=""width:240px; margin: auto;"">
                                    <img src=""images/D80.png"" style= ""width:200px""alt=""img"">
                                </div>
                            </div>","107","","0","images/D80.png","","","","[""Rounded"",""Rectangular""]"
"","","","","","html-slider-response","139","267548","0.0-133.0","vw99l70wsx","NaN","<div style=""width:500px;"">
                                <p style=""font-size:50px; font-weight:bold;""
                                ></p>
                                <div style=""width:240px; margin: auto;"">
                                    <img src=""images/D66.png"" style= ""width:200px""alt=""img"">
                                </div>
                            </div>","-65","","0","images/D66.png","","","","[""Rounded"",""Rectangular""]"
"","","","","","html-slider-response","140","272011","0.0-134.0","vw99l70wsx","NaN","<div style=""width:500px;"">
                                <p style=""font-size:50px; font-weight:bold;""
                                ></p>
                                <div style=""width:240px; margin: auto;"">
                                    <img src=""images/D21.png"" style= ""width:200px""alt=""img"">
                                </div>
                            </div>","87","","0","images/D21.png","","","","[""Rounded"",""Rectangular""]"
"","","","","","html-slider-response","141","275508","0.0-135.0","vw99l70wsx","NaN","<div style=""width:500px;"">
                                <p style=""font-size:50px; font-weight:bold;""
                                ></p>
                                <div style=""width:240px; margin: auto;"">
                                    <img src=""images/D29.png"" style= ""width:200px""alt=""img"">
                                </div>
                            </div>","-77","","0","images/D29.png","","","","[""Rounded"",""Rectangular""]"
"","","","","","html-slider-response","142","286110","0.0-136.0","vw99l70wsx","NaN","<div style=""width:500px;"">
                                <p style=""font-size:50px; font-weight:bold;""
                                ></p>
                                <div style=""width:240px; margin: auto;"">
                                    <img src=""images/D22.png"" style= ""width:200px""alt=""img"">
                                </div>
                            </div>","-70","","0","images/D22.png","","","","[""Rounded"",""Rectangular""]"
"","","","","","html-slider-response","143","287733","0.0-137.0","vw99l70wsx","NaN","<div style=""width:500px;"">
                                <p style=""font-size:50px; font-weight:bold;""
                                ></p>
                                <div style=""width:240px; margin: auto;"">
                                    <img src=""images/D105.png"" style= ""width:200px""alt=""img"">
                                </div>
                            </div>","94","","0","images/D105.png","","","","[""Rounded"",""Rectangular""]"
"","","","","","html-slider-response","144","289776","0.0-138.0","vw99l70wsx","NaN","<div style=""width:500px;"">
                                <p style=""font-size:50px; font-weight:bold;""
                                ></p>
                                <div style=""width:240px; margin: auto;"">
                                    <img src=""images/D87.png"" style= ""width:200px""alt=""img"">
                                </div>
                            </div>","-56","","0","images/D87.png","","","","[""Rounded"",""Rectangular""]"
"","","","","","html-slider-response","145","293324","0.0-139.0","vw99l70wsx","NaN","<div style=""width:500px;"">
                                <p style=""font-size:50px; font-weight:bold;""
                                ></p>
                                <div style=""width:240px; margin: auto;"">
                                    <img src=""images/D49.png"" style= ""width:200px""alt=""img"">
                                </div>
                            </div>","80","","0","images/D49.png","","","","[""Rounded"",""Rectangular""]"
"","","","","","html-button-response","146","310511","0.0-140.0","vw99l70wsx","16685","You have completed the second block of trials out of six. Please click 'Continue' when you are ready proceed.","0","","","","","","",""
"","","","","","html-button-response","147","316900","0.0-141.0","vw99l70wsx","6388","In the following trials, you will be asked to rate textures on the scale <b>Rough</b> versus <b>Smooth</b>. Please click 'Continue' when you are ready proceed.","0","","","","","","",""
"","","","","","html-slider-response","148","318979","0.0-142.0","vw99l70wsx","NaN","<div style=""width:500px;"">
                                <p style=""font-size:50px; font-weight:bold;""
                                ></p>
                                <div style=""width:240px; margin: auto;"">
                                    <img src=""images/D9.png"" style= ""width:200px""alt=""img"">
                                </div>
                            </div>","-86","","0","images/D9.png","","","","[""Rough"",""Smooth""]"
"","","","","","html-slider-response","149","320913","0.0-143.0","vw99l70wsx","NaN","<div style=""width:500px;"">
                                <p style=""font-size:50px; font-weight:bold;""
                                ></p>
                                <div style=""width:240px; margin: auto;"">
                                    <img src=""images/D64.png"" style= ""width:200px""alt=""img"">
                                </div>
                            </div>","-109","","0","images/D64.png","","","","[""Rough"",""Smooth""]"
"","","","","","html-slider-response","150","327612","0.0-144.0","vw99l70wsx","NaN","<div style=""width:500px;"">
                                <p style=""font-size:50px; font-weight:bold;""
                                ></p>
                                <div style=""width:240px; margin: auto;"">
                                    <img src=""images/D6.png"" style= ""width:200px""alt=""img"">
                                </div>
                            </div>","96","","0","images/D6.png","","","","[""Rough"",""Smooth""]"
"","","","","","html-slider-response","151","330642","0.0-145.0","vw99l70wsx","NaN","<div style=""width:500px;"">
                                <p style=""font-size:50px; font-weight:bold;""
                                ></p>
                                <div style=""width:240px; margin: auto;"">
                                    <img src=""images/D106.png"" style= ""width:200px""alt=""img"">
                                </div>
                            </div>","76","","0","images/D106.png","","","","[""Rough"",""Smooth""]"
"","","","","","html-slider-response","152","335912","0.0-146.0","vw99l70wsx","NaN","<div style=""width:500px;"">
                                <p style=""font-size:50px; font-weight:bold;""
                                ></p>
                                <div style=""width:240px; margin: auto;"">
                                    <img src=""images/D25.png"" style= ""width:200px""alt=""img"">
                                </div>
                            </div>","66","","0","images/D25.png","","","","[""Rough"",""Smooth""]"
"","","","","","html-slider-response","153","337750","0.0-147.0","vw99l70wsx","NaN","<div style=""width:500px;"">
                                <p style=""font-size:50px; font-weight:bold;""
                                ></p>
                                <div style=""width:240px; margin: auto;"">
                                    <img src=""images/D56.png"" style= ""width:200px""alt=""img"">
                                </div>
                            </div>","75","","0","images/D56.png","","","","[""Rough"",""Smooth""]"
"","","","","","html-slider-response","154","339285","0.0-148.0","vw99l70wsx","NaN","<div style=""width:500px;"">
                                <p style=""font-size:50px; font-weight:bold;""
                                ></p>
                                <div style=""width:240px; margin: auto;"">
                                    <img src=""images/D14.png"" style= ""width:200px""alt=""img"">
                                </div>
                            </div>","58","","0","images/D14.png","","","","[""Rough"",""Smooth""]"
"","","","","","html-slider-response","155","348428","0.0-149.0","vw99l70wsx","NaN","<div style=""width:500px;"">
                                <p style=""font-size:50px; font-weight:bold;""
                                ></p>
                                <div style=""width:240px; margin: auto;"">
                                    <img src=""images/D48.png"" style= ""width:200px""alt=""img"">
                                </div>
                            </div>","98","","0","images/D48.png","","","","[""Rough"",""Smooth""]"
"","","","","","html-slider-response","156","433339","0.0-150.0","vw99l70wsx","NaN","<div style=""width:500px;"">
                                <p style=""font-size:50px; font-weight:bold;""
                                ></p>
                                <div style=""width:240px; margin: auto;"">
                                    <img src=""images/D78.png"" style= ""width:200px""alt=""img"">
                                </div>
                            </div>","105","","0","images/D78.png","","","","[""Rough"",""Smooth""]"
"","","","","","html-slider-response","157","585484","0.0-151.0","vw99l70wsx","NaN","<div style=""width:500px;"">
                                <p style=""font-size:50px; font-weight:bold;""
                                ></p>
                                <div style=""width:240px; margin: auto;"">
                                    <img src=""images/D77.png"" style= ""width:200px""alt=""img"">
                                </div>
                            </div>","114","","0","images/D77.png","","","","[""Rough"",""Smooth""]"
"","","","","","html-slider-response","158","587800","0.0-152.0","vw99l70wsx","NaN","<div style=""width:500px;"">
                                <p style=""font-size:50px; font-weight:bold;""
                                ></p>
                                <div style=""width:240px; margin: auto;"">
                                    <img src=""images/D81.png"" style= ""width:200px""alt=""img"">
                                </div>
                            </div>","-124","","0","images/D81.png","","","","[""Rough"",""Smooth""]"
"","","","","","html-slider-response","159","589470","0.0-153.0","vw99l70wsx","NaN","<div style=""width:500px;"">
                                <p style=""font-size:50px; font-weight:bold;""
                                ></p>
                                <div style=""width:240px; margin: auto;"">
                                    <img src=""images/D17.png"" style= ""width:200px""alt=""img"">
                                </div>
                            </div>","101","","0","images/D17.png","","","","[""Rough"",""Smooth""]"
"","","","","","html-slider-response","160","591983","0.0-154.0","vw99l70wsx","NaN","<div style=""width:500px;"">
                                <p style=""font-size:50px; font-weight:bold;""
                                ></p>
                                <div style=""width:240px; margin: auto;"">
                                    <img src=""images/D37.png"" style= ""width:200px""alt=""img"">
                                </div>
                            </div>","-67","","0","images/D37.png","","","","[""Rough"",""Smooth""]"
"","","","","","html-slider-response","161","593708","0.0-155.0","vw99l70wsx","NaN","<div style=""width:500px;"">
                                <p style=""font-size:50px; font-weight:bold;""
                                ></p>
                                <div style=""width:240px; margin: auto;"">
                                    <img src=""images/D52.png"" style= ""width:200px""alt=""img"">
                                </div>
                            </div>","101","","0","images/D52.png","","","","[""Rough"",""Smooth""]"
"","","","","","html-slider-response","162","596009","0.0-156.0","vw99l70wsx","NaN","<div style=""width:500px;"">
                                <p style=""font-size:50px; font-weight:bold;""
                                ></p>
                                <div style=""width:240px; margin: auto;"">
                                    <img src=""images/D20.png"" style= ""width:200px""alt=""img"">
                                </div>
                            </div>","98","","0","images/D20.png","","","","[""Rough"",""Smooth""]"
"","","","","","html-slider-response","163","597553","0.0-157.0","vw99l70wsx","NaN","<div style=""width:500px;"">
                                <p style=""font-size:50px; font-weight:bold;""
                                ></p>
                                <div style=""width:240px; margin: auto;"">
                                    <img src=""images/D35.png"" style= ""width:200px""alt=""img"">
                                </div>
                            </div>","-50","","0","images/D35.png","","","","[""Rough"",""Smooth""]"
"","","","","","html-slider-response","164","599827","0.0-158.0","vw99l70wsx","NaN","<div style=""width:500px;"">
                                <p style=""font-size:50px; font-weight:bold;""
                                ></p>
                                <div style=""width:240px; margin: auto;"">
                                    <img src=""images/D19.png"" style= ""width:200px""alt=""img"">
                                </div>
                            </div>","96","","0","images/D19.png","","","","[""Rough"",""Smooth""]"
"","","","","","html-slider-response","165","602022","0.0-159.0","vw99l70wsx","NaN","<div style=""width:500px;"">
                                <p style=""font-size:50px; font-weight:bold;""
                                ></p>
                                <div style=""width:240px; margin: auto;"">
                                    <img src=""images/D47.png"" style= ""width:200px""alt=""img"">
                                </div>
                            </div>","126","","0","images/D47.png","","","","[""Rough"",""Smooth""]"
"","","","","","html-slider-response","166","603884","0.0-160.0","vw99l70wsx","NaN","<div style=""width:500px;"">
                                <p style=""font-size:50px; font-weight:bold;""
                                ></p>
                                <div style=""width:240px; margin: auto;"">
                                    <img src=""images/D8.png"" style= ""width:200px""alt=""img"">
                                </div>
                            </div>","-82","","0","images/D8.png","","","","[""Rough"",""Smooth""]"
"","","","","","html-slider-response","167","684659","0.0-161.0","vw99l70wsx","NaN","<div style=""width:500px;"">
                                <p style=""font-size:50px; font-weight:bold;""
                                ></p>
                                <div style=""width:240px; margin: auto;"">
                                    <img src=""images/D18.png"" style= ""width:200px""alt=""img"">
                                </div>
                            </div>","-98","","0","images/D18.png","","","","[""Rough"",""Smooth""]"
"","","","","","html-slider-response","168","686235","0.0-162.0","vw99l70wsx","NaN","<div style=""width:500px;"">
                                <p style=""font-size:50px; font-weight:bold;""
                                ></p>
                                <div style=""width:240px; margin: auto;"">
                                    <img src=""images/D74.png"" style= ""width:200px""alt=""img"">
                                </div>
                            </div>","-105","","0","images/D74.png","","","","[""Rough"",""Smooth""]"
"","","","","","html-slider-response","169","687826","0.0-163.0","vw99l70wsx","NaN","<div style=""width:500px;"">
                                <p style=""font-size:50px; font-weight:bold;""
                                ></p>
                                <div style=""width:240px; margin: auto;"">
                                    <img src=""images/D103.png"" style= ""width:200px""alt=""img"">
                                </div>
                            </div>","128","","0","images/D103.png","","","","[""Rough"",""Smooth""]"
"","","","","","html-slider-response","170","689378","0.0-164.0","vw99l70wsx","NaN","<div style=""width:500px;"">
                                <p style=""font-size:50px; font-weight:bold;""
                                ></p>
                                <div style=""width:240px; margin: auto;"">
                                    <img src=""images/D34.png"" style= ""width:200px""alt=""img"">
                                </div>
                            </div>","-76","","0","images/D34.png","","","","[""Rough"",""Smooth""]"
"","","","","","html-slider-response","171","690880","0.0-165.0","vw99l70wsx","NaN","<div style=""width:500px;"">
                                <p style=""font-size:50px; font-weight:bold;""
                                ></p>
                                <div style=""width:240px; margin: auto;"">
                                    <img src=""images/D94.png"" style= ""width:200px""alt=""img"">
                                </div>
                            </div>","-59","","0","images/D94.png","","","","[""Rough"",""Smooth""]"
"","","","","","html-slider-response","172","692283","0.0-166.0","vw99l70wsx","NaN","<div style=""width:500px;"">
                                <p style=""font-size:50px; font-weight:bold;""
                                ></p>
                                <div style=""width:240px; margin: auto;"">
                                    <img src=""images/D101.png"" style= ""width:200px""alt=""img"">
                                </div>
                            </div>","98","","0","images/D101.png","","","","[""Rough"",""Smooth""]"
"","","","","","html-slider-response","173","693674","0.0-167.0","vw99l70wsx","NaN","<div style=""width:500px;"">
                                <p style=""font-size:50px; font-weight:bold;""
                                ></p>
                                <div style=""width:240px; margin: auto;"">
                                    <img src=""images/D75.png"" style= ""width:200px""alt=""img"">
                                </div>
                            </div>","-92","","0","images/D75.png","","","","[""Rough"",""Smooth""]"
"","","","","","html-slider-response","174","694994","0.0-168.0","vw99l70wsx","NaN","<div style=""width:500px;"">
                                <p style=""font-size:50px; font-weight:bold;""
                                ></p>
                                <div style=""width:240px; margin: auto;"">
                                    <img src=""images/D53.png"" style= ""width:200px""alt=""img"">
                                </div>
                            </div>","86","","0","images/D53.png","","","","[""Rough"",""Smooth""]"
"","","","","","html-slider-response","175","696339","0.0-169.0","vw99l70wsx","NaN","<div style=""width:500px;"">
                                <p style=""font-size:50px; font-weight:bold;""
                                ></p>
                                <div style=""width:240px; margin: auto;"">
                                    <img src=""images/D36.png"" style= ""width:200px""alt=""img"">
                                </div>
                            </div>","-72","","0","images/D36.png","","","","[""Rough"",""Smooth""]"
"","","","","","html-slider-response","176","697571","0.0-170.0","vw99l70wsx","NaN","<div style=""width:500px;"">
                                <p style=""font-size:50px; font-weight:bold;""
                                ></p>
                                <div style=""width:240px; margin: auto;"">
                                    <img src=""images/D11.png"" style= ""width:200px""alt=""img"">
                                </div>
                            </div>","78","","0","images/D11.png","","","","[""Rough"",""Smooth""]"
"","","","","","html-slider-response","177","741054","0.0-171.0","vw99l70wsx","NaN","<div style=""width:500px;"">
                                <p style=""font-size:50px; font-weight:bold;""
                                ></p>
                                <div style=""width:240px; margin: auto;"">
                                    <img src=""images/D85.png"" style= ""width:200px""alt=""img"">
                                </div>
                            </div>","78","","0","images/D85.png","","","","[""Rough"",""Smooth""]"
"","","","","","html-slider-response","178","808861","0.0-172.0","vw99l70wsx","NaN","<div style=""width:500px;"">
                                <p style=""font-size:50px; font-weight:bold;""
                                ></p>
                                <div style=""width:240px; margin: auto;"">
                                    <img src=""images/D26.png"" style= ""width:200px""alt=""img"">
                                </div>
                            </div>","-108","","0","images/D26.png","","","","[""Rough"",""Smooth""]"
"","","","","","html-slider-response","179","819022","0.0-173.0","vw99l70wsx","NaN","<div style=""width:500px;"">
                                <p style=""font-size:50px; font-weight:bold;""
                                ></p>
                                <div style=""width:240px; margin: auto;"">
                                    <img src=""images/D24.png"" style= ""width:200px""alt=""img"">
                                </div>
                            </div>","-77","","0","images/D24.png","","","","[""Rough"",""Smooth""]"
"","","","","","html-slider-response","180","820909","0.0-174.0","vw99l70wsx","NaN","<div style=""width:500px;"">
                                <p style=""font-size:50px; font-weight:bold;""
                                ></p>
                                <div style=""width:240px; margin: auto;"">
                                    <img src=""images/D65.png"" style= ""width:200px""alt=""img"">
                                </div>
                            </div>","102","","0","images/D65.png","","","","[""Rough"",""Smooth""]"
"","","","","","html-slider-response","181","822595","0.0-175.0","vw99l70wsx","NaN","<div style=""width:500px;"">
                                <p style=""font-size:50px; font-weight:bold;""
                                ></p>
                                <div style=""width:240px; margin: auto;"">
                                    <img src=""images/D111.png"" style= ""width:200px""alt=""img"">
                                </div>
                            </div>","-97","","0","images/D111.png","","","","[""Rough"",""Smooth""]"
"","","","","","html-slider-response","182","824044","0.0-176.0","vw99l70wsx","NaN","<div style=""width:500px;"">
                                <p style=""font-size:50px; font-weight:bold;""
                                ></p>
                                <div style=""width:240px; margin: auto;"">
                                    <img src=""images/D96.png"" style= ""width:200px""alt=""img"">
                                </div>
                            </div>","-97","","0","images/D96.png","","","","[""Rough"",""Smooth""]"
"","","","","","html-slider-response","183","825660","0.0-177.0","vw99l70wsx","NaN","<div style=""width:500px;"">
                                <p style=""font-size:50px; font-weight:bold;""
                                ></p>
                                <div style=""width:240px; margin: auto;"">
                                    <img src=""images/D82.png"" style= ""width:200px""alt=""img"">
                                </div>
                            </div>","123","","0","images/D82.png","","","","[""Rough"",""Smooth""]"
"","","","","","html-slider-response","184","827655","0.0-178.0","vw99l70wsx","NaN","<div style=""width:500px;"">
                                <p style=""font-size:50px; font-weight:bold;""
                                ></p>
                                <div style=""width:240px; margin: auto;"">
                                    <img src=""images/D79.png"" style= ""width:200px""alt=""img"">
                                </div>
                            </div>","114","","0","images/D79.png","","","","[""Rough"",""Smooth""]"
"","","","","","html-slider-response","185","829168","0.0-179.0","vw99l70wsx","NaN","<div style=""width:500px;"">
                                <p style=""font-size:50px; font-weight:bold;""
                                ></p>
                                <div style=""width:240px; margin: auto;"">
                                    <img src=""images/D84.png"" style= ""width:200px""alt=""img"">
                                </div>
                            </div>","-110","","0","images/D84.png","","","","[""Rough"",""Smooth""]"
"","","","","","html-slider-response","186","831357","0.0-180.0","vw99l70wsx","NaN","<div style=""width:500px;"">
                                <p style=""font-size:50px; font-weight:bold;""
                                ></p>
                                <div style=""width:240px; margin: auto;"">
                                    <img src=""images/D83.png"" style= ""width:200px""alt=""img"">
                                </div>
                            </div>","111","","0","images/D83.png","","","","[""Rough"",""Smooth""]"
"","","","","","html-slider-response","187","832692","0.0-181.0","vw99l70wsx","NaN","<div style=""width:500px;"">
                                <p style=""font-size:50px; font-weight:bold;""
                                ></p>
                                <div style=""width:240px; margin: auto;"">
