"success","timeout","failed_images","failed_audio","failed_video","trial_type","trial_index","time_elapsed","internal_node_id","subject_id","rt","stimulus","response","question_order","slider_start","image_path","practiceTrial","practiceTrialNum","correct","slider_labels"
"true","false","[]","[]","[]","preload","0","28","0.0-0.0","x7cof6buoz","","","","","","","","","",""
"","","","","","html-button-response","1","3632","0.0-1.0","x7cof6buoz","3603","<div style='text-align:center; font-size:20px; line-height:25px; width: 1200px;'>
                Welcome to our experiment! <br>
                <br>At the bottom of this screen, you will see a button that says 'Begin Experiment.
                <br>Please only click that button when you are ready to complete the 25 minute experiment in one sitting. <br>
                <br> Once you click that button, it will not be possible to restart the experiment. <br><br>","0","","","","","","",""
"true","","","","","fullscreen","2","5793","0.0-2.0","x7cof6buoz","1146","","","","","","","","",""
"","","","","","survey-multi-select","3","9379","0.0-3.0","x7cof6buoz","3581","","{""Consent"":[""<strong>I consent</strong>""]}","[0]","","","","","",""
"","","","","","html-button-response","4","10934","0.0-4.0","x7cof6buoz","1551","Welcome! <p> This experiment involves two parts: demographic information, followed by the experimental task.<p> It will take about 25 minutes to complete both parts.","0","","","","","","",""
"","","","","","survey-text","5","22504","0.0-5.0","x7cof6buoz","11565","","{""Age"":""19"",""Gender"":""Female"",""Race/ethnicity"":""African American""}","","","","","","",""
"","","","","","html-slider-response","6","25585","0.0-6.0","x7cof6buoz","3078","
                <div style='text-align:center; height: auto; margin-left=-100px; margin-bottom: -20px; font-size:20px; line-height:5px; width: 1200px;'>
                    <br>During this experiment, you will see a series of textures, one at a time, like the ones below: 
                </div>
                    <br>
                    <br>
                    <img src=""anchoring_visual_textures.png"" alt=""img"" style=""max-width:1200px; margin-left: -10px;"">
                </div>
                <div style=""clear: both;""></div>
                </div>
                    <div style='text-align:center; margin-left=-100px; font-size:20px; line-height:20px; width: 1200px; margin-top: -50px;'>
                    
                    <br> For each texture, you will be asked to rate where you think it falls on each of the response scales with the following endpoints:
                    </div>
                            <div style=""text-align: center; width: 1400px; "">
                                <p style=""font-size:20px; line-height:5px; ""><b>Stripey</b> versus <b>Blobby</b></p>
                                <p style=""font-size:20px; line-height:5px; ""><b>Rectangular</b> versus <b>Rounded</b></p>
                                <p style=""font-size:20px;line-height:5px;""><b>Fine</b> versus <b>Coarse</b></p>
                                <p style=""font-size:20px;line-height:5px; ""><b>Smooth</b> versus <b>Rough</b></p>
                                <p style=""font-size:20px;line-height:5px; ""><b>Non-Random</b> versus <b>Random</b></p>
                                <p style=""font-size:20px;line-height:5px;""><b>Soft</b> versus <b>Hard</b></p>
                            </div>
                            <div style='text-align:center; font-size:20px; line-height:20px; width: 1400px;'>
                    
                    Each trial will include one texture and one response scale. You will be asked to make your rating by sliding the cursor along a slider response scale like the one below.
                    <br><br> Before beginning, please look at the textures and scales. For each scale, think about the texture you associate most with the left endpoint. When you see that texture for that response scale, please click near the left of the scale.
                    <br><br> Now, please think about the texture you associate most with the right endpoint of each scale. When you see that texture for that response scale, please click near the right of the scale. 
                    <br><br> If you think a texture is not strongly associated with either endpoint of the scale, please click near the midpoint of the scale. Please use the full range of the scale. 
                    <br><br> You will be asked to rate each texture for a given scale before moving on to the next scale.
                    <br><br> Please press the 'Continue' button for instructions on how to use the slider.                     <br><br>
                ","null","","0","visual_textures_anchoring.png","true","","",""
"","","","","","html-button-response","7","27223","0.0-7.0","x7cof6buoz","1636","<div style=""width:1200px; margin-top:-150px;""><p style=""text-align:center; font-size:24px;"">To move the slider, click and drag your cursor to the location of the scale where you would like to make your rating and then let go. <br><br> When you let go of the slider, your response will be recorded and the next trial will begin. <br><br><br>
                We are interested in your initial impressions of each texture and scale, so please go with your first intuition. <br><br>
                Before you begin the experiment, there will be four training trials for you to practice using the scale. <br><br><br><br></div>
                <div style=""width:1200px;""><p style=""text-align:center; font-size:20px;"">When you are ready to start the training trials, please click ""Continue"".</p></div>","0","","","","","","",""
"","","","","","html-slider-response","8","28588","0.0-8.0-0.0","x7cof6buoz","NaN","<div style=""width:500px;"">
                                <p style=""font-size:25px;"">Please move the slider all the way to the <br> right endpoint of the scale</p>

                                </div>
                            </div>","200","","0","","true","0","true",""
"","","","","","html-button-response","9","29710","0.0-8.0-1.0","x7cof6buoz","615","<p align='center'><b>Good job!</b> Click on 'Continue' to proceed.</p>","0","","","","","","",""
"","","","","","html-slider-response","10","30720","0.0-9.0-0.0","x7cof6buoz","NaN","<div style=""width:500px;"">
                                <p style=""font-size:25px;"">Please move the slider all the way to the <br> left endpoint of the scale</p>

                                </div>
                            </div>","-200","","0","","true","1","true",""
"","","","","","html-button-response","11","31772","0.0-9.0-1.0","x7cof6buoz","539","<p align='center'><b>Good job!</b> Click on 'Continue' to proceed.</p>","0","","","","","","",""
"","","","","","html-slider-response","12","33723","0.0-10.0-0.0","x7cof6buoz","NaN","<div style=""width:500px;"">
                                <p style=""font-size:25px;"">Please move the slider halfway between the center and right endpoint of the scale</p>

                                </div>
                            </div>","102","","0","","true","2","true",""
"","","","","","html-button-response","13","34797","0.0-10.0-1.0","x7cof6buoz","564","<p align='center'><b>Good job!</b> Click on 'Continue' to proceed.</p>","0","","","","","","",""
"","","","","","html-slider-response","14","36367","0.0-11.0-0.0","x7cof6buoz","NaN","<div style=""width:500px;"">
                                <p style=""font-size:25px;"">Please move the slider halfway between the center and left endpoint of the scale</p>

                                </div>
                            </div>","-110","","0","","true","3","true",""
"","","","","","html-button-response","15","37404","0.0-11.0-1.0","x7cof6buoz","533","<p align='center'><b>Good job!</b> Click on 'Continue' to proceed.</p>","0","","","","","","",""
"","","","","","html-button-response","16","38073","0.0-12.0","x7cof6buoz","667","<div style=""width:800px; margin-top:-300px;""><p style=""text-align:center; font-size:22px; line-height:25px;""""> Great job! You've completed the practice trials.</div>
                     <div style=""width:800px; margin-top:-20px;""><p style=""text-align:center""><br><br> In the following trials, you will be asked to rate textures on each scale one-by-one. <br> You will be given opportunities to take breaks when you have completed each block of trials. There are six total blocks of trials. <br><br> Please click continue to begin the main task.<br><br><br> </div>","0","","","","","","",""
"","","","","","html-button-response","17","38610","0.0-13.0","x7cof6buoz","536","In the following trials, you will be asked to rate textures on the scale <b>Stripey</b> versus <b>Blobby</b>. Please click 'Continue' when you are ready proceed.","0","","","","","","",""
"","","","","","html-slider-response","18","40457","0.0-14.0","x7cof6buoz","NaN","<div style=""width:500px;"">
                                <p style=""font-size:50px; font-weight:bold;""
                                ></p>
                                <div style=""width:240px; margin: auto;"">
                                    <img src=""images/D57.png"" style= ""width:200px""alt=""img"">
                                </div>
                            </div>","200","","0","images/D57.png","","","","[""Stripey"",""Blobby""]"
"","","","","","html-slider-response","19","42219","0.0-15.0","x7cof6buoz","NaN","<div style=""width:500px;"">
                                <p style=""font-size:50px; font-weight:bold;""
                                ></p>
                                <div style=""width:240px; margin: auto;"">
                                    <img src=""images/D55.png"" style= ""width:200px""alt=""img"">
                                </div>
                            </div>","200","","0","images/D55.png","","","","[""Stripey"",""Blobby""]"
"","","","","","html-slider-response","20","44029","0.0-16.0","x7cof6buoz","NaN","<div style=""width:500px;"">
                                <p style=""font-size:50px; font-weight:bold;""
                                ></p>
                                <div style=""width:240px; margin: auto;"">
                                    <img src=""images/D75.png"" style= ""width:200px""alt=""img"">
                                </div>
                            </div>","129","","0","images/D75.png","","","","[""Stripey"",""Blobby""]"
"","","","","","html-slider-response","21","45453","0.0-17.0","x7cof6buoz","NaN","<div style=""width:500px;"">
                                <p style=""font-size:50px; font-weight:bold;""
                                ></p>
                                <div style=""width:240px; margin: auto;"">
                                    <img src=""images/D4.png"" style= ""width:200px""alt=""img"">
                                </div>
                            </div>","200","","0","images/D4.png","","","","[""Stripey"",""Blobby""]"
"","","","","","html-slider-response","22","46854","0.0-18.0","x7cof6buoz","NaN","<div style=""width:500px;"">
                                <p style=""font-size:50px; font-weight:bold;""
                                ></p>
                                <div style=""width:240px; margin: auto;"">
                                    <img src=""images/D64.png"" style= ""width:200px""alt=""img"">
                                </div>
                            </div>","182","","0","images/D64.png","","","","[""Stripey"",""Blobby""]"
"","","","","","html-slider-response","23","48266","0.0-19.0","x7cof6buoz","NaN","<div style=""width:500px;"">
                                <p style=""font-size:50px; font-weight:bold;""
                                ></p>
                                <div style=""width:240px; margin: auto;"">
                                    <img src=""images/D52.png"" style= ""width:200px""alt=""img"">
                                </div>
                            </div>","200","","0","images/D52.png","","","","[""Stripey"",""Blobby""]"
"","","","","","html-slider-response","24","49602","0.0-20.0","x7cof6buoz","NaN","<div style=""width:500px;"">
                                <p style=""font-size:50px; font-weight:bold;""
                                ></p>
                                <div style=""width:240px; margin: auto;"">
                                    <img src=""images/D81.png"" style= ""width:200px""alt=""img"">
                                </div>
                            </div>","200","","0","images/D81.png","","","","[""Stripey"",""Blobby""]"
"","","","","","html-slider-response","25","51333","0.0-21.0","x7cof6buoz","NaN","<div style=""width:500px;"">
                                <p style=""font-size:50px; font-weight:bold;""
                                ></p>
                                <div style=""width:240px; margin: auto;"">
                                    <img src=""images/D16.png"" style= ""width:200px""alt=""img"">
                                </div>
                            </div>","-200","","0","images/D16.png","","","","[""Stripey"",""Blobby""]"
"","","","","","html-slider-response","26","53618","0.0-22.0","x7cof6buoz","NaN","<div style=""width:500px;"">
                                <p style=""font-size:50px; font-weight:bold;""
                                ></p>
                                <div style=""width:240px; margin: auto;"">
                                    <img src=""images/D32.png"" style= ""width:200px""alt=""img"">
                                </div>
                            </div>","200","","0","images/D32.png","","","","[""Stripey"",""Blobby""]"
"","","","","","html-slider-response","27","55301","0.0-23.0","x7cof6buoz","NaN","<div style=""width:500px;"">
                                <p style=""font-size:50px; font-weight:bold;""
                                ></p>
                                <div style=""width:240px; margin: auto;"">
                                    <img src=""images/D49.png"" style= ""width:200px""alt=""img"">
                                </div>
                            </div>","-200","","0","images/D49.png","","","","[""Stripey"",""Blobby""]"
"","","","","","html-slider-response","28","56907","0.0-24.0","x7cof6buoz","NaN","<div style=""width:500px;"">
                                <p style=""font-size:50px; font-weight:bold;""
                                ></p>
                                <div style=""width:240px; margin: auto;"">
                                    <img src=""images/D105.png"" style= ""width:200px""alt=""img"">
                                </div>
                            </div>","-200","","0","images/D105.png","","","","[""Stripey"",""Blobby""]"
"","","","","","html-slider-response","29","58986","0.0-25.0","x7cof6buoz","NaN","<div style=""width:500px;"">
                                <p style=""font-size:50px; font-weight:bold;""
                                ></p>
                                <div style=""width:240px; margin: auto;"">
                                    <img src=""images/D22.png"" style= ""width:200px""alt=""img"">
                                </div>
                            </div>","115","","0","images/D22.png","","","","[""Stripey"",""Blobby""]"
"","","","","","html-slider-response","30","61358","0.0-26.0","x7cof6buoz","NaN","<div style=""width:500px;"">
                                <p style=""font-size:50px; font-weight:bold;""
                                ></p>
                                <div style=""width:240px; margin: auto;"">
                                    <img src=""images/D14.png"" style= ""width:200px""alt=""img"">
                                </div>
                            </div>","98","","0","images/D14.png","","","","[""Stripey"",""Blobby""]"
"","","","","","html-slider-response","31","62801","0.0-27.0","x7cof6buoz","NaN","<div style=""width:500px;"">
                                <p style=""font-size:50px; font-weight:bold;""
                                ></p>
                                <div style=""width:240px; margin: auto;"">
                                    <img src=""images/D92.png"" style= ""width:200px""alt=""img"">
                                </div>
                            </div>","200","","0","images/D92.png","","","","[""Stripey"",""Blobby""]"
"","","","","","html-slider-response","32","64659","0.0-28.0","x7cof6buoz","NaN","<div style=""width:500px;"">
                                <p style=""font-size:50px; font-weight:bold;""
                                ></p>
                                <div style=""width:240px; margin: auto;"">
                                    <img src=""images/D77.png"" style= ""width:200px""alt=""img"">
                                </div>
                            </div>","200","","0","images/D77.png","","","","[""Stripey"",""Blobby""]"
"","","","","","html-slider-response","33","66802","0.0-29.0","x7cof6buoz","NaN","<div style=""width:500px;"">
                                <p style=""font-size:50px; font-weight:bold;""
                                ></p>
                                <div style=""width:240px; margin: auto;"">
                                    <img src=""images/D1.png"" style= ""width:200px""alt=""img"">
                                </div>
                            </div>","200","","0","images/D1.png","","","","[""Stripey"",""Blobby""]"
"","","","","","html-slider-response","34","68342","0.0-30.0","x7cof6buoz","NaN","<div style=""width:500px;"">
                                <p style=""font-size:50px; font-weight:bold;""
                                ></p>
                                <div style=""width:240px; margin: auto;"">
                                    <img src=""images/D111.png"" style= ""width:200px""alt=""img"">
                                </div>
                            </div>","200","","0","images/D111.png","","","","[""Stripey"",""Blobby""]"
"","","","","","html-slider-response","35","69510","0.0-31.0","x7cof6buoz","NaN","<div style=""width:500px;"">
                                <p style=""font-size:50px; font-weight:bold;""
                                ></p>
                                <div style=""width:240px; margin: auto;"">
                                    <img src=""images/D66.png"" style= ""width:200px""alt=""img"">
                                </div>
                            </div>","200","","0","images/D66.png","","","","[""Stripey"",""Blobby""]"
"","","","","","html-slider-response","36","70722","0.0-32.0","x7cof6buoz","NaN","<div style=""width:500px;"">
                                <p style=""font-size:50px; font-weight:bold;""
                                ></p>
                                <div style=""width:240px; margin: auto;"">
                                    <img src=""images/D3.png"" style= ""width:200px""alt=""img"">
                                </div>
                            </div>","200","","0","images/D3.png","","","","[""Stripey"",""Blobby""]"
"","","","","","html-slider-response","37","72206","0.0-33.0","x7cof6buoz","NaN","<div style=""width:500px;"">
                                <p style=""font-size:50px; font-weight:bold;""
                                ></p>
                                <div style=""width:240px; margin: auto;"">
                                    <img src=""images/D78.png"" style= ""width:200px""alt=""img"">
                                </div>
                            </div>","200","","0","images/D78.png","","","","[""Stripey"",""Blobby""]"
"","","","","","html-slider-response","38","76924","0.0-34.0","x7cof6buoz","NaN","<div style=""width:500px;"">
                                <p style=""font-size:50px; font-weight:bold;""
                                ></p>
                                <div style=""width:240px; margin: auto;"">
                                    <img src=""images/D85.png"" style= ""width:200px""alt=""img"">
                                </div>
                            </div>","-98","","0","images/D85.png","","","","[""Stripey"",""Blobby""]"
"","","","","","html-slider-response","39","78868","0.0-35.0","x7cof6buoz","NaN","<div style=""width:500px;"">
                                <p style=""font-size:50px; font-weight:bold;""
                                ></p>
                                <div style=""width:240px; margin: auto;"">
                                    <img src=""images/D26.png"" style= ""width:200px""alt=""img"">
                                </div>
                            </div>","200","","0","images/D26.png","","","","[""Stripey"",""Blobby""]"
"","","","","","html-slider-response","40","80316","0.0-36.0","x7cof6buoz","NaN","<div style=""width:500px;"">
                                <p style=""font-size:50px; font-weight:bold;""
                                ></p>
                                <div style=""width:240px; margin: auto;"">
                                    <img src=""images/D65.png"" style= ""width:200px""alt=""img"">
                                </div>
                            </div>","200","","0","images/D65.png","","","","[""Stripey"",""Blobby""]"
"","","","","","html-slider-response","41","81734","0.0-37.0","x7cof6buoz","NaN","<div style=""width:500px;"">
                                <p style=""font-size:50px; font-weight:bold;""
                                ></p>
                                <div style=""width:240px; margin: auto;"">
                                    <img src=""images/D74.png"" style= ""width:200px""alt=""img"">
                                </div>
                            </div>","200","","0","images/D74.png","","","","[""Stripey"",""Blobby""]"
"","","","","","html-slider-response","42","83118","0.0-38.0","x7cof6buoz","NaN","<div style=""width:500px;"">
                                <p style=""font-size:50px; font-weight:bold;""
                                ></p>
                                <div style=""width:240px; margin: auto;"">
                                    <img src=""images/D104.png"" style= ""width:200px""alt=""img"">
                                </div>
                            </div>","200","","0","images/D104.png","","","","[""Stripey"",""Blobby""]"
"","","","","","html-slider-response","43","84570","0.0-39.0","x7cof6buoz","NaN","<div style=""width:500px;"">
                                <p style=""font-size:50px; font-weight:bold;""
                                ></p>
                                <div style=""width:240px; margin: auto;"">
                                    <img src=""images/D11.png"" style= ""width:200px""alt=""img"">
                                </div>
                            </div>","200","","0","images/D11.png","","","","[""Stripey"",""Blobby""]"
"","","","","","html-slider-response","44","85922","0.0-40.0","x7cof6buoz","NaN","<div style=""width:500px;"">
                                <p style=""font-size:50px; font-weight:bold;""
                                ></p>
                                <div style=""width:240px; margin: auto;"">
                                    <img src=""images/D29.png"" style= ""width:200px""alt=""img"">
                                </div>
                            </div>","198","","0","images/D29.png","","","","[""Stripey"",""Blobby""]"
"","","","","","html-slider-response","45","87245","0.0-41.0","x7cof6buoz","NaN","<div style=""width:500px;"">
                                <p style=""font-size:50px; font-weight:bold;""
                                ></p>
                                <div style=""width:240px; margin: auto;"">
                                    <img src=""images/D46.png"" style= ""width:200px""alt=""img"">
                                </div>
                            </div>","200","","0","images/D46.png","","","","[""Stripey"",""Blobby""]"
"","","","","","html-slider-response","46","89234","0.0-42.0","x7cof6buoz","NaN","<div style=""width:500px;"">
                                <p style=""font-size:50px; font-weight:bold;""
                                ></p>
                                <div style=""width:240px; margin: auto;"">
                                    <img src=""images/D68.png"" style= ""width:200px""alt=""img"">
                                </div>
                            </div>","200","","0","images/D68.png","","","","[""Stripey"",""Blobby""]"
"","","","","","html-slider-response","47","90434","0.0-43.0","x7cof6buoz","NaN","<div style=""width:500px;"">
                                <p style=""font-size:50px; font-weight:bold;""
                                ></p>
                                <div style=""width:240px; margin: auto;"">
                                    <img src=""images/D19.png"" style= ""width:200px""alt=""img"">
                                </div>
                            </div>","198","","0","images/D19.png","","","","[""Stripey"",""Blobby""]"
"","","","","","html-slider-response","48","91949","0.0-44.0","x7cof6buoz","NaN","<div style=""width:500px;"">
                                <p style=""font-size:50px; font-weight:bold;""
                                ></p>
                                <div style=""width:240px; margin: auto;"">
                                    <img src=""images/D25.png"" style= ""width:200px""alt=""img"">
                                </div>
                            </div>","200","","0","images/D25.png","","","","[""Stripey"",""Blobby""]"
"","","","","","html-slider-response","49","93851","0.0-45.0","x7cof6buoz","NaN","<div style=""width:500px;"">
                                <p style=""font-size:50px; font-weight:bold;""
                                ></p>
                                <div style=""width:240px; margin: auto;"">
                                    <img src=""images/D6.png"" style= ""width:200px""alt=""img"">
                                </div>
                            </div>","200","","0","images/D6.png","","","","[""Stripey"",""Blobby""]"
"","","","","","html-slider-response","50","96317","0.0-46.0","x7cof6buoz","NaN","<div style=""width:500px;"">
                                <p style=""font-size:50px; font-weight:bold;""
                                ></p>
                                <div style=""width:240px; margin: auto;"">
                                    <img src=""images/D79.png"" style= ""width:200px""alt=""img"">
                                </div>
                            </div>","-102","","0","images/D79.png","","","","[""Stripey"",""Blobby""]"
"","","","","","html-slider-response","51","97618","0.0-47.0","x7cof6buoz","NaN","<div style=""width:500px;"">
                                <p style=""font-size:50px; font-weight:bold;""
                                ></p>
                                <div style=""width:240px; margin: auto;"">
                                    <img src=""images/D56.png"" style= ""width:200px""alt=""img"">
                                </div>
                            </div>","200","","0","images/D56.png","","","","[""Stripey"",""Blobby""]"
"","","","","","html-slider-response","52","98955","0.0-48.0","x7cof6buoz","NaN","<div style=""width:500px;"">
                                <p style=""font-size:50px; font-weight:bold;""
                                ></p>
                                <div style=""width:240px; margin: auto;"">
                                    <img src=""images/D20.png"" style= ""width:200px""alt=""img"">
                                </div>
                            </div>","200","","0","images/D20.png","","","","[""Stripey"",""Blobby""]"
"","","","","","html-slider-response","53","100285","0.0-49.0","x7cof6buoz","NaN","<div style=""width:500px;"">
                                <p style=""font-size:50px; font-weight:bold;""
                                ></p>
                                <div style=""width:240px; margin: auto;"">
                                    <img src=""images/D24.png"" style= ""width:200px""alt=""img"">
                                </div>
                            </div>","200","","0","images/D24.png","","","","[""Stripey"",""Blobby""]"
"","","","","","html-slider-response","54","102168","0.0-50.0","x7cof6buoz","NaN","<div style=""width:500px;"">
                                <p style=""font-size:50px; font-weight:bold;""
                                ></p>
                                <div style=""width:240px; margin: auto;"">
                                    <img src=""images/D8.png"" style= ""width:200px""alt=""img"">
                                </div>
                            </div>","111","","0","images/D8.png","","","","[""Stripey"",""Blobby""]"
"","","","","","html-slider-response","55","103864","0.0-51.0","x7cof6buoz","NaN","<div style=""width:500px;"">
                                <p style=""font-size:50px; font-weight:bold;""
                                ></p>
                                <div style=""width:240px; margin: auto;"">
                                    <img src=""images/D48.png"" style= ""width:200px""alt=""img"">
                                </div>
                            </div>","87","","0","images/D48.png","","","","[""Stripey"",""Blobby""]"
"","","","","","html-slider-response","56","114913","0.0-52.0","x7cof6buoz","NaN","<div style=""width:500px;"">
                                <p style=""font-size:50px; font-weight:bold;""
                                ></p>
                                <div style=""width:240px; margin: auto;"">
                                    <img src=""images/D95.png"" style= ""width:200px""alt=""img"">
                                </div>
                            </div>","96","","0","images/D95.png","","","","[""Stripey"",""Blobby""]"
"","","","","","html-slider-response","57","116315","0.0-53.0","x7cof6buoz","NaN","<div style=""width:500px;"">
                                <p style=""font-size:50px; font-weight:bold;""
                                ></p>
                                <div style=""width:240px; margin: auto;"">
                                    <img src=""images/D18.png"" style= ""width:200px""alt=""img"">
                                </div>
                            </div>","96","","0","images/D18.png","","","","[""Stripey"",""Blobby""]"
"","","","","","html-slider-response","58","121475","0.0-54.0","x7cof6buoz","NaN","<div style=""width:500px;"">
                                <p style=""font-size:50px; font-weight:bold;""
                                ></p>
                                <div style=""width:240px; margin: auto;"">
                                    <img src=""images/D9.png"" style= ""width:200px""alt=""img"">
                                </div>
                            </div>","96","","0","images/D9.png","","","","[""Stripey"",""Blobby""]"
"","","","","","html-slider-response","59","123961","0.0-55.0","x7cof6buoz","NaN","<div style=""width:500px;"">
                                <p style=""font-size:50px; font-weight:bold;""
                                ></p>
                                <div style=""width:240px; margin: auto;"">
                                    <img src=""images/D21.png"" style= ""width:200px""alt=""img"">
                                </div>
                            </div>","-98","","0","images/D21.png","","","","[""Stripey"",""Blobby""]"
"","","","","","html-slider-response","60","125787","0.0-56.0","x7cof6buoz","NaN","<div style=""width:500px;"">
                                <p style=""font-size:50px; font-weight:bold;""
                                ></p>
                                <div style=""width:240px; margin: auto;"">
                                    <img src=""images/D82.png"" style= ""width:200px""alt=""img"">
                                </div>
                            </div>","195","","0","images/D82.png","","","","[""Stripey"",""Blobby""]"
"","","","","","html-slider-response","61","126708","0.0-57.0","x7cof6buoz","NaN","<div style=""width:500px;"">
                                <p style=""font-size:50px; font-weight:bold;""
                                ></p>
                                <div style=""width:240px; margin: auto;"">
                                    <img src=""images/D106.png"" style= ""width:200px""alt=""img"">
                                </div>
                            </div>","195","","0","images/D106.png","","","","[""Stripey"",""Blobby""]"
"","","","","","html-slider-response","62","127832","0.0-58.0","x7cof6buoz","NaN","<div style=""width:500px;"">
                                <p style=""font-size:50px; font-weight:bold;""
                                ></p>
                                <div style=""width:240px; margin: auto;"">
                                    <img src=""images/D94.png"" style= ""width:200px""alt=""img"">
                                </div>
                            </div>","195","","0","images/D94.png","","","","[""Stripey"",""Blobby""]"
"","","","","","html-slider-response","63","130669","0.0-59.0","x7cof6buoz","NaN","<div style=""width:500px;"">
                                <p style=""font-size:50px; font-weight:bold;""
                                ></p>
                                <div style=""width:240px; margin: auto;"">
                                    <img src=""images/D84.png"" style= ""width:200px""alt=""img"">
                                </div>
                            </div>","195","","0","images/D84.png","","","","[""Stripey"",""Blobby""]"
"","","","","","html-slider-response","64","133211","0.0-60.0","x7cof6buoz","NaN","<div style=""width:500px;"">
                                <p style=""font-size:50px; font-weight:bold;""
                                ></p>
                                <div style=""width:240px; margin: auto;"">
                                    <img src=""images/D47.png"" style= ""width:200px""alt=""img"">
                                </div>
                            </div>","194","","0","images/D47.png","","","","[""Stripey"",""Blobby""]"
"","","","","","html-slider-response","65","135428","0.0-61.0","x7cof6buoz","NaN","<div style=""width:500px;"">
                                <p style=""font-size:50px; font-weight:bold;""
                                ></p>
                                <div style=""width:240px; margin: auto;"">
                                    <img src=""images/D53.png"" style= ""width:200px""alt=""img"">
                                </div>
                            </div>","194","","0","images/D53.png","","","","[""Stripey"",""Blobby""]"
"","","","","","html-slider-response","66","138183","0.0-62.0","x7cof6buoz","NaN","<div style=""width:500px;"">
                                <p style=""font-size:50px; font-weight:bold;""
                                ></p>
                                <div style=""width:240px; margin: auto;"">
                                    <img src=""images/D51.png"" style= ""width:200px""alt=""img"">
                                </div>
                            </div>","-180","","0","images/D51.png","","","","[""Stripey"",""Blobby""]"
"","","","","","html-slider-response","67","142467","0.0-63.0","x7cof6buoz","NaN","<div style=""width:500px;"">
                                <p style=""font-size:50px; font-weight:bold;""
                                ></p>
                                <div style=""width:240px; margin: auto;"">
                                    <img src=""images/D87.png"" style= ""width:200px""alt=""img"">
                                </div>
                            </div>","85","","0","images/D87.png","","","","[""Stripey"",""Blobby""]"
"","","","","","html-slider-response","68","144116","0.0-64.0","x7cof6buoz","NaN","<div style=""width:500px;"">
                                <p style=""font-size:50px; font-weight:bold;""
                                ></p>
                                <div style=""width:240px; margin: auto;"">
                                    <img src=""images/D35.png"" style= ""width:200px""alt=""img"">
                                </div>
                            </div>","123","","0","images/D35.png","","","","[""Stripey"",""Blobby""]"
"","","","","","html-slider-response","69","145420","0.0-65.0","x7cof6buoz","NaN","<div style=""width:500px;"">
                                <p style=""font-size:50px; font-weight:bold;""
                                ></p>
                                <div style=""width:240px; margin: auto;"">
                                    <img src=""images/D103.png"" style= ""width:200px""alt=""img"">
                                </div>
                            </div>","106","","0","images/D103.png","","","","[""Stripey"",""Blobby""]"
"","","","","","html-slider-response","70","147367","0.0-66.0","x7cof6buoz","NaN","<div style=""width:500px;"">
                                <p style=""font-size:50px; font-weight:bold;""
                                ></p>
                                <div style=""width:240px; margin: auto;"">
                                    <img src=""images/D76.png"" style= ""width:200px""alt=""img"">
                                </div>
                            </div>","-104","","0","images/D76.png","","","","[""Stripey"",""Blobby""]"
"","","","","","html-slider-response","71","150083","0.0-67.0","x7cof6buoz","NaN","<div style=""width:500px;"">
                                <p style=""font-size:50px; font-weight:bold;""
                                ></p>
                                <div style=""width:240px; margin: auto;"">
                                    <img src=""images/D102.png"" style= ""width:200px""alt=""img"">
                                </div>
                            </div>","192","","0","images/D102.png","","","","[""Stripey"",""Blobby""]"
"","","","","","html-slider-response","72","156685","0.0-68.0","x7cof6buoz","NaN","<div style=""width:500px;"">
                                <p style=""font-size:50px; font-weight:bold;""
                                ></p>
                                <div style=""width:240px; margin: auto;"">
                                    <img src=""images/D37.png"" style= ""width:200px""alt=""img"">
                                </div>
                            </div>","107","","0","images/D37.png","","","","[""Stripey"",""Blobby""]"
"","","","","","html-slider-response","73","157844","0.0-69.0","x7cof6buoz","NaN","<div style=""width:500px;"">
                                <p style=""font-size:50px; font-weight:bold;""
                                ></p>
                                <div style=""width:240px; margin: auto;"">
                                    <img src=""images/D17.png"" style= ""width:200px""alt=""img"">
                                </div>
                            </div>","104","","0","images/D17.png","","","","[""Stripey"",""Blobby""]"
"","","","","","html-slider-response","74","158798","0.0-70.0","x7cof6buoz","NaN","<div style=""width:500px;"">
                                <p style=""font-size:50px; font-weight:bold;""
                                ></p>
                                <div style=""width:240px; margin: auto;"">
                                    <img src=""images/D34.png"" style= ""width:200px""alt=""img"">
                                </div>
                            </div>","103","","0","images/D34.png","","","","[""Stripey"",""Blobby""]"
"","","","","","html-slider-response","75","159923","0.0-71.0","x7cof6buoz","NaN","<div style=""width:500px;"">
                                <p style=""font-size:50px; font-weight:bold;""
                                ></p>
                                <div style=""width:240px; margin: auto;"">
                                    <img src=""images/D83.png"" style= ""width:200px""alt=""img"">
                                </div>
                            </div>","134","","0","images/D83.png","","","","[""Stripey"",""Blobby""]"
"","","","","","html-slider-response","76","161113","0.0-72.0","x7cof6buoz","NaN","<div style=""width:500px;"">
                                <p style=""font-size:50px; font-weight:bold;""
                                ></p>
                                <div style=""width:240px; margin: auto;"">
                                    <img src=""images/D96.png"" style= ""width:200px""alt=""img"">
                                </div>
                            </div>","183","","0","images/D96.png","","","","[""Stripey"",""Blobby""]"
"","","","","","html-slider-response","77","162522","0.0-73.0","x7cof6buoz","NaN","<div style=""width:500px;"">
                                <p style=""font-size:50px; font-weight:bold;""
                                ></p>
                                <div style=""width:240px; margin: auto;"">
                                    <img src=""images/D36.png"" style= ""width:200px""alt=""img"">
                                </div>
                            </div>","200","","0","images/D36.png","","","","[""Stripey"",""Blobby""]"
"","","","","","html-slider-response","78","164102","0.0-74.0","x7cof6buoz","NaN","<div style=""width:500px;"">
                                <p style=""font-size:50px; font-weight:bold;""
                                ></p>
                                <div style=""width:240px; margin: auto;"">
                                    <img src=""images/D80.png"" style= ""width:200px""alt=""img"">
                                </div>
                            </div>","200","","0","images/D80.png","","","","[""Stripey"",""Blobby""]"
"","","","","","html-slider-response","79","165483","0.0-75.0","x7cof6buoz","NaN","<div style=""width:500px;"">
                                <p style=""font-size:50px; font-weight:bold;""
                                ></p>
                                <div style=""width:240px; margin: auto;"">
                                    <img src=""images/D101.png"" style= ""width:200px""alt=""img"">
                                </div>
                            </div>","200","","0","images/D101.png","","","","[""Stripey"",""Blobby""]"
"","","","","","html-button-response","80","166912","0.0-76.0","x7cof6buoz","927","You have completed the first block of trials out of six. Please click 'Continue' when you are ready proceed.","0","","","","","","",""
"","","","","","html-button-response","81","167817","0.0-77.0","x7cof6buoz","903","In the following trials, you will be asked to rate textures on the scale <b>Fine</b> versus <b>Coarse</b>. Please click 'Continue' when you are ready proceed.","0","","","","","","",""
"","","","","","html-slider-response","82","169435","0.0-78.0","x7cof6buoz","NaN","<div style=""width:500px;"">
                                <p style=""font-size:50px; font-weight:bold;""
                                ></p>
                                <div style=""width:240px; margin: auto;"">
                                    <img src=""images/D57.png"" style= ""width:200px""alt=""img"">
                                </div>
                            </div>","200","","0","images/D57.png","","","","[""Fine"",""Coarse""]"
"","","","","","html-slider-response","83","170818","0.0-79.0","x7cof6buoz","NaN","<div style=""width:500px;"">
                                <p style=""font-size:50px; font-weight:bold;""
                                ></p>
                                <div style=""width:240px; margin: auto;"">
                                    <img src=""images/D55.png"" style= ""width:200px""alt=""img"">
                                </div>
                            </div>","200","","0","images/D55.png","","","","[""Fine"",""Coarse""]"
"","","","","","html-slider-response","84","172378","0.0-80.0","x7cof6buoz","NaN","<div style=""width:500px;"">
                                <p style=""font-size:50px; font-weight:bold;""
                                ></p>
                                <div style=""width:240px; margin: auto;"">
                                    <img src=""images/D75.png"" style= ""width:200px""alt=""img"">
                                </div>
                            </div>","200","","0","images/D75.png","","","","[""Fine"",""Coarse""]"
"","","","","","html-slider-response","85","173736","0.0-81.0","x7cof6buoz","NaN","<div style=""width:500px;"">
                                <p style=""font-size:50px; font-weight:bold;""
                                ></p>
                                <div style=""width:240px; margin: auto;"">
                                    <img src=""images/D4.png"" style= ""width:200px""alt=""img"">
                                </div>
                            </div>","200","","0","images/D4.png","","","","[""Fine"",""Coarse""]"
"","","","","","html-slider-response","86","180088","0.0-82.0","x7cof6buoz","NaN","<div style=""width:500px;"">
                                <p style=""font-size:50px; font-weight:bold;""
                                ></p>
                                <div style=""width:240px; margin: auto;"">
                                    <img src=""images/D64.png"" style= ""width:200px""alt=""img"">
                                </div>
                            </div>","200","","0","images/D64.png","","","","[""Fine"",""Coarse""]"
"","","","","","html-slider-response","87","181601","0.0-83.0","x7cof6buoz","NaN","<div style=""width:500px;"">
                                <p style=""font-size:50px; font-weight:bold;""
                                ></p>
                                <div style=""width:240px; margin: auto;"">
                                    <img src=""images/D52.png"" style= ""width:200px""alt=""img"">
                                </div>
                            </div>","200","","0","images/D52.png","","","","[""Fine"",""Coarse""]"
"","","","","","html-slider-response","88","183101","0.0-84.0","x7cof6buoz","NaN","<div style=""width:500px;"">
                                <p style=""font-size:50px; font-weight:bold;""
                                ></p>
                                <div style=""width:240px; margin: auto;"">
                                    <img src=""images/D81.png"" style= ""width:200px""alt=""img"">
                                </div>
                            </div>","200","","0","images/D81.png","","","","[""Fine"",""Coarse""]"
"","","","","","html-slider-response","89","184734","0.0-85.0","x7cof6buoz","NaN","<div style=""width:500px;"">
                                <p style=""font-size:50px; font-weight:bold;""
                                ></p>
                                <div style=""width:240px; margin: auto;"">
                                    <img src=""images/D16.png"" style= ""width:200px""alt=""img"">
                                </div>
                            </div>","-200","","0","images/D16.png","","","","[""Fine"",""Coarse""]"
"","","","","","html-slider-response","90","186251","0.0-86.0","x7cof6buoz","NaN","<div style=""width:500px;"">
                                <p style=""font-size:50px; font-weight:bold;""
                                ></p>
                                <div style=""width:240px; margin: auto;"">
                                    <img src=""images/D32.png"" style= ""width:200px""alt=""img"">
                                </div>
                            </div>","200","","0","images/D32.png","","","","[""Fine"",""Coarse""]"
"","","","","","html-slider-response","91","188301","0.0-87.0","x7cof6buoz","NaN","<div style=""width:500px;"">
                                <p style=""font-size:50px; font-weight:bold;""
                                ></p>
                                <div style=""width:240px; margin: auto;"">
                                    <img src=""images/D49.png"" style= ""width:200px""alt=""img"">
                                </div>
                            </div>","-200","","0","images/D49.png","","","","[""Fine"",""Coarse""]"
"","","","","","html-slider-response","92","190025","0.0-88.0","x7cof6buoz","NaN","<div style=""width:500px;"">
                                <p style=""font-size:50px; font-weight:bold;""
                                ></p>
                                <div style=""width:240px; margin: auto;"">
                                    <img src=""images/D105.png"" style= ""width:200px""alt=""img"">
                                </div>
                            </div>","-200","","0","images/D105.png","","","","[""Fine"",""Coarse""]"
"","","","","","html-slider-response","93","191385","0.0-89.0","x7cof6buoz","NaN","<div style=""width:500px;"">
                                <p style=""font-size:50px; font-weight:bold;""
                                ></p>
                                <div style=""width:240px; margin: auto;"">
                                    <img src=""images/D22.png"" style= ""width:200px""alt=""img"">
                                </div>
                            </div>","200","","0","images/D22.png","","","","[""Fine"",""Coarse""]"
"","","","","","html-slider-response","94","193235","0.0-90.0","x7cof6buoz","NaN","<div style=""width:500px;"">
                                <p style=""font-size:50px; font-weight:bold;""
                                ></p>
                                <div style=""width:240px; margin: auto;"">
                                    <img src=""images/D14.png"" style= ""width:200px""alt=""img"">
                                </div>
                            </div>","200","","0","images/D14.png","","","","[""Fine"",""Coarse""]"
"","","","","","html-slider-response","95","194884","0.0-91.0","x7cof6buoz","NaN","<div style=""width:500px;"">
                                <p style=""font-size:50px; font-weight:bold;""
                                ></p>
                                <div style=""width:240px; margin: auto;"">
                                    <img src=""images/D92.png"" style= ""width:200px""alt=""img"">
                                </div>
                            </div>","200","","0","images/D92.png","","","","[""Fine"",""Coarse""]"
"","","","","","html-slider-response","96","196725","0.0-92.0","x7cof6buoz","NaN","<div style=""width:500px;"">
                                <p style=""font-size:50px; font-weight:bold;""
                                ></p>
                                <div style=""width:240px; margin: auto;"">
                                    <img src=""images/D77.png"" style= ""width:200px""alt=""img"">
                                </div>
                            </div>","200","","0","images/D77.png","","","","[""Fine"",""Coarse""]"
"","","","","","html-slider-response","97","200016","0.0-93.0","x7cof6buoz","NaN","<div style=""width:500px;"">
                                <p style=""font-size:50px; font-weight:bold;""
                                ></p>
                                <div style=""width:240px; margin: auto;"">
                                    <img src=""images/D1.png"" style= ""width:200px""alt=""img"">
                                </div>
                            </div>","200","","0","images/D1.png","","","","[""Fine"",""Coarse""]"
"","","","","","html-slider-response","98","201558","0.0-94.0","x7cof6buoz","NaN","<div style=""width:500px;"">
                                <p style=""font-size:50px; font-weight:bold;""
                                ></p>
                                <div style=""width:240px; margin: auto;"">
                                    <img src=""images/D111.png"" style= ""width:200px""alt=""img"">
                                </div>
                            </div>","200","","0","images/D111.png","","","","[""Fine"",""Coarse""]"
"","","","","","html-slider-response","99","203219","0.0-95.0","x7cof6buoz","NaN","<div style=""width:500px;"">
                                <p style=""font-size:50px; font-weight:bold;""
                                ></p>
                                <div style=""width:240px; margin: auto;"">
                                    <img src=""images/D66.png"" style= ""width:200px""alt=""img"">
                                </div>
                            </div>","200","","0","images/D66.png","","","","[""Fine"",""Coarse""]"
"","","","","","html-slider-response","100","205067","0.0-96.0","x7cof6buoz","NaN","<div style=""width:500px;"">
                                <p style=""font-size:50px; font-weight:bold;""
                                ></p>
                                <div style=""width:240px; margin: auto;"">
                                    <img src=""images/D3.png"" style= ""width:200px""alt=""img"">
                                </div>
                            </div>","200","","0","images/D3.png","","","","[""Fine"",""Coarse""]"
"","","","","","html-slider-response","101","207379","0.0-97.0","x7cof6buoz","NaN","<div style=""width:500px;"">
                                <p style=""font-size:50px; font-weight:bold;""
                                ></p>
                                <div style=""width:240px; margin: auto;"">
                                    <img src=""images/D78.png"" style= ""width:200px""alt=""img"">
                                </div>
                            </div>","200","","0","images/D78.png","","","","[""Fine"",""Coarse""]"
"","","","","","html-slider-response","102","208754","0.0-98.0","x7cof6buoz","NaN","<div style=""width:500px;"">
                                <p style=""font-size:50px; font-weight:bold;""
                                ></p>
                                <div style=""width:240px; margin: auto;"">
                                    <img src=""images/D85.png"" style= ""width:200px""alt=""img"">
                                </div>
                            </div>","200","","0","images/D85.png","","","","[""Fine"",""Coarse""]"
"","","","","","html-slider-response","103","210663","0.0-99.0","x7cof6buoz","NaN","<div style=""width:500px;"">
                                <p style=""font-size:50px; font-weight:bold;""
                                ></p>
                                <div style=""width:240px; margin: auto;"">
                                    <img src=""images/D26.png"" style= ""width:200px""alt=""img"">
                                </div>
                            </div>","200","","0","images/D26.png","","","","[""Fine"",""Coarse""]"
"","","","","","html-slider-response","104","212168","0.0-100.0","x7cof6buoz","NaN","<div style=""width:500px;"">
                                <p style=""font-size:50px; font-weight:bold;""
                                ></p>
                                <div style=""width:240px; margin: auto;"">
                                    <img src=""images/D65.png"" style= ""width:200px""alt=""img"">
                                </div>
                            </div>","200","","0","images/D65.png","","","","[""Fine"",""Coarse""]"
"","","","","","html-slider-response","105","214509","0.0-101.0","x7cof6buoz","NaN","<div style=""width:500px;"">
                                <p style=""font-size:50px; font-weight:bold;""
                                ></p>
                                <div style=""width:240px; margin: auto;"">
                                    <img src=""images/D74.png"" style= ""width:200px""alt=""img"">
                                </div>
                            </div>","-200","","0","images/D74.png","","","","[""Fine"",""Coarse""]"
"","","","","","html-slider-response","106","215991","0.0-102.0","x7cof6buoz","NaN","<div style=""width:500px;"">
                                <p style=""font-size:50px; font-weight:bold;""
                                ></p>
                                <div style=""width:240px; margin: auto;"">
                                    <img src=""images/D104.png"" style= ""width:200px""alt=""img"">
                                </div>
                            </div>","200","","0","images/D104.png","","","","[""Fine"",""Coarse""]"
"","","","","","html-slider-response","107","217801","0.0-103.0","x7cof6buoz","NaN","<div style=""width:500px;"">
                                <p style=""font-size:50px; font-weight:bold;""
                                ></p>
                                <div style=""width:240px; margin: auto;"">
                                    <img src=""images/D11.png"" style= ""width:200px""alt=""img"">
                                </div>
                            </div>","200","","0","images/D11.png","","","","[""Fine"",""Coarse""]"
"","","","","","html-slider-response","108","219246","0.0-104.0","x7cof6buoz","NaN","<div style=""width:500px;"">
                                <p style=""font-size:50px; font-weight:bold;""
                                ></p>
                                <div style=""width:240px; margin: auto;"">
                                    <img src=""images/D29.png"" style= ""width:200px""alt=""img"">
                                </div>
                            </div>","200","","0","images/D29.png","","","","[""Fine"",""Coarse""]"
"","","","","","html-slider-response","109","220712","0.0-105.0","x7cof6buoz","NaN","<div style=""width:500px;"">
                                <p style=""font-size:50px; font-weight:bold;""
                                ></p>
                                <div style=""width:240px; margin: auto;"">
                                    <img src=""images/D46.png"" style= ""width:200px""alt=""img"">
                                </div>
                            </div>","200","","0","images/D46.png","","","","[""Fine"",""Coarse""]"
"","","","","","html-slider-response","110","222301","0.0-106.0","x7cof6buoz","NaN","<div style=""width:500px;"">
                                <p style=""font-size:50px; font-weight:bold;""
                                ></p>
                                <div style=""width:240px; margin: auto;"">
                                    <img src=""images/D68.png"" style= ""width:200px""alt=""img"">
                                </div>
                            </div>","200","","0","images/D68.png","","","","[""Fine"",""Coarse""]"
"","","","","","html-slider-response","111","223884","0.0-107.0","x7cof6buoz","NaN","<div style=""width:500px;"">
                                <p style=""font-size:50px; font-weight:bold;""
                                ></p>
                                <div style=""width:240px; margin: auto;"">
                                    <img src=""images/D19.png"" style= ""width:200px""alt=""img"">
                                </div>
                            </div>","200","","0","images/D19.png","","","","[""Fine"",""Coarse""]"
"","","","","","html-slider-response","112","225455","0.0-108.0","x7cof6buoz","NaN","<div style=""width:500px;"">
                                <p style=""font-size:50px; font-weight:bold;""
                                ></p>
                                <div style=""width:240px; margin: auto;"">
                                    <img src=""images/D25.png"" style= ""width:200px""alt=""img"">
                                </div>
                            </div>","200","","0","images/D25.png","","","","[""Fine"",""Coarse""]"
"","","","","","html-slider-response","113","227835","0.0-109.0","x7cof6buoz","NaN","<div style=""width:500px;"">
                                <p style=""font-size:50px; font-weight:bold;""
                                ></p>
                                <div style=""width:240px; margin: auto;"">
                                    <img src=""images/D6.png"" style= ""width:200px""alt=""img"">
                                </div>
                            </div>","-97","","0","images/D6.png","","","","[""Fine"",""Coarse""]"
"","","","","","html-slider-response","114","229488","0.0-110.0","x7cof6buoz","NaN","<div style=""width:500px;"">
                                <p style=""font-size:50px; font-weight:bold;""
                                ></p>
                                <div style=""width:240px; margin: auto;"">
                                    <img src=""images/D79.png"" style= ""width:200px""alt=""img"">
                                </div>
                            </div>","-122","","0","images/D79.png","","","","[""Fine"",""Coarse""]"
"","","","","","html-slider-response","115","230892","0.0-111.0","x7cof6buoz","NaN","<div style=""width:500px;"">
                                <p style=""font-size:50px; font-weight:bold;""
                                ></p>
                                <div style=""width:240px; margin: auto;"">
                                    <img src=""images/D56.png"" style= ""width:200px""alt=""img"">
                                </div>
                            </div>","121","","0","images/D56.png","","","","[""Fine"",""Coarse""]"
"","","","","","html-slider-response","116","232602","0.0-112.0","x7cof6buoz","NaN","<div style=""width:500px;"">
                                <p style=""font-size:50px; font-weight:bold;""
                                ></p>
                                <div style=""width:240px; margin: auto;"">
                                    <img src=""images/D20.png"" style= ""width:200px""alt=""img"">
                                </div>
                            </div>","200","","0","images/D20.png","","","","[""Fine"",""Coarse""]"
"","","","","","html-slider-response","117","233924","0.0-113.0","x7cof6buoz","NaN","<div style=""width:500px;"">
                                <p style=""font-size:50px; font-weight:bold;""
                                ></p>
                                <div style=""width:240px; margin: auto;"">
                                    <img src=""images/D24.png"" style= ""width:200px""alt=""img"">
                                </div>
                            </div>","200","","0","images/D24.png","","","","[""Fine"",""Coarse""]"
"","","","","","html-slider-response","118","235318","0.0-114.0","x7cof6buoz","NaN","<div style=""width:500px;"">
                                <p style=""font-size:50px; font-weight:bold;""
                                ></p>
                                <div style=""width:240px; margin: auto;"">
                                    <img src=""images/D8.png"" style= ""width:200px""alt=""img"">
                                </div>
                            </div>","200","","0","images/D8.png","","","","[""Fine"",""Coarse""]"
"","","","","","html-slider-response","119","238452","0.0-115.0","x7cof6buoz","NaN","<div style=""width:500px;"">
                                <p style=""font-size:50px; font-weight:bold;""
                                ></p>
                                <div style=""width:240px; margin: auto;"">
                                    <img src=""images/D48.png"" style= ""width:200px""alt=""img"">
                                </div>
                            </div>","-200","","0","images/D48.png","","","","[""Fine"",""Coarse""]"
"","","","","","html-slider-response","120","239883","0.0-116.0","x7cof6buoz","NaN","<div style=""width:500px;"">
                                <p style=""font-size:50px; font-weight:bold;""
                                ></p>
                                <div style=""width:240px; margin: auto;"">
                                    <img src=""images/D95.png"" style= ""width:200px""alt=""img"">
                                </div>
                            </div>","200","","0","images/D95.png","","","","[""Fine"",""Coarse""]"
"","","","","","html-slider-response","121","241203","0.0-117.0","x7cof6buoz","NaN","<div style=""width:500px;"">
                                <p style=""font-size:50px; font-weight:bold;""
                                ></p>
                                <div style=""width:240px; margin: auto;"">
                                    <img src=""images/D18.png"" style= ""width:200px""alt=""img"">
                                </div>
                            </div>","200","","0","images/D18.png","","","","[""Fine"",""Coarse""]"
"","","","","","html-slider-response","122","242551","0.0-118.0","x7cof6buoz","NaN","<div style=""width:500px;"">
                                <p style=""font-size:50px; font-weight:bold;""
                                ></p>
                                <div style=""width:240px; margin: auto;"">
                                    <img src=""images/D9.png"" style= ""width:200px""alt=""img"">
                                </div>
                            </div>","200","","0","images/D9.png","","","","[""Fine"",""Coarse""]"
"","","","","","html-slider-response","123","246189","0.0-119.0","x7cof6buoz","NaN","<div style=""width:500px;"">
                                <p style=""font-size:50px; font-weight:bold;""
                                ></p>
                                <div style=""width:240px; margin: auto;"">
                                    <img src=""images/D21.png"" style= ""width:200px""alt=""img"">
                                </div>
                            </div>","-200","","0","images/D21.png","","","","[""Fine"",""Coarse""]"
"","","","","","html-slider-response","124","247737","0.0-120.0","x7cof6buoz","NaN","<div style=""width:500px;"">
                                <p style=""font-size:50px; font-weight:bold;""
                                ></p>
                                <div style=""width:240px; margin: auto;"">
                                    <img src=""images/D82.png"" style= ""width:200px""alt=""img"">
                                </div>
                            </div>","200","","0","images/D82.png","","","","[""Fine"",""Coarse""]"
"","","","","","html-slider-response","125","249184","0.0-121.0","x7cof6buoz","NaN","<div style=""width:500px;"">
                                <p style=""font-size:50px; font-weight:bold;""
                                ></p>
                                <div style=""width:240px; margin: auto;"">
                                    <img src=""images/D106.png"" style= ""width:200px""alt=""img"">
                                </div>
                            </div>","-200","","0","images/D106.png","","","","[""Fine"",""Coarse""]"
"","","","","","html-slider-response","126","250436","0.0-122.0","x7cof6buoz","NaN","<div style=""width:500px;"">
                                <p style=""font-size:50px; font-weight:bold;""
                                ></p>
                                <div style=""width:240px; margin: auto;"">
                                    <img src=""images/D94.png"" style= ""width:200px""alt=""img"">
                                </div>
                            </div>","200","","0","images/D94.png","","","","[""Fine"",""Coarse""]"
"","","","","","html-slider-response","127","251847","0.0-123.0","x7cof6buoz","NaN","<div style=""width:500px;"">
                                <p style=""font-size:50px; font-weight:bold;""
                                ></p>
                                <div style=""width:240px; margin: auto;"">
                                    <img src=""images/D84.png"" style= ""width:200px""alt=""img"">
                                </div>
                            </div>","200","","0","images/D84.png","","","","[""Fine"",""Coarse""]"
"","","","","","html-slider-response","128","253270","0.0-124.0","x7cof6buoz","NaN","<div style=""width:500px;"">
                                <p style=""font-size:50px; font-weight:bold;""
                                ></p>
                                <div style=""width:240px; margin: auto;"">
                                    <img src=""images/D47.png"" style= ""width:200px""alt=""img"">
                                </div>
                            </div>","200","","0","images/D47.png","","","","[""Fine"",""Coarse""]"
"","","","","","html-slider-response","129","255537","0.0-125.0","x7cof6buoz","NaN","<div style=""width:500px;"">
                                <p style=""font-size:50px; font-weight:bold;""
                                ></p>
                                <div style=""width:240px; margin: auto;"">
                                    <img src=""images/D53.png"" style= ""width:200px""alt=""img"">
                                </div>
                            </div>","-200","","0","images/D53.png","","","","[""Fine"",""Coarse""]"
"","","","","","html-slider-response","130","257853","0.0-126.0","x7cof6buoz","NaN","<div style=""width:500px;"">
                                <p style=""font-size:50px; font-weight:bold;""
                                ></p>
                                <div style=""width:240px; margin: auto;"">
                                    <img src=""images/D51.png"" style= ""width:200px""alt=""img"">
                                </div>
                            </div>","-90","","0","images/D51.png","","","","[""Fine"",""Coarse""]"
"","","","","","html-slider-response","131","262018","0.0-127.0","x7cof6buoz","NaN","<div style=""width:500px;"">
                                <p style=""font-size:50px; font-weight:bold;""
                                ></p>
                                <div style=""width:240px; margin: auto;"">
                                    <img src=""images/D87.png"" style= ""width:200px""alt=""img"">
                                </div>
                            </div>","200","","0","images/D87.png","","","","[""Fine"",""Coarse""]"
"","","","","","html-slider-response","132","263540","0.0-128.0","x7cof6buoz","NaN","<div style=""width:500px;"">
                                <p style=""font-size:50px; font-weight:bold;""
                                ></p>
                                <div style=""width:240px; margin: auto;"">
                                    <img src=""images/D35.png"" style= ""width:200px""alt=""img"">
                                </div>
                            </div>","200","","0","images/D35.png","","","","[""Fine"",""Coarse""]"
"","","","","","html-slider-response","133","265948","0.0-129.0","x7cof6buoz","NaN","<div style=""width:500px;"">
                                <p style=""font-size:50px; font-weight:bold;""
                                ></p>
                                <div style=""width:240px; margin: auto;"">
                                    <img src=""images/D103.png"" style= ""width:200px""alt=""img"">
                                </div>
                            </div>","200","","0","images/D103.png","","","","[""Fine"",""Coarse""]"
"","","","","","html-slider-response","134","267528","0.0-130.0","x7cof6buoz","NaN","<div style=""width:500px;"">
                                <p style=""font-size:50px; font-weight:bold;""
                                ></p>
                                <div style=""width:240px; margin: auto;"">
                                    <img src=""images/D76.png"" style= ""width:200px""alt=""img"">
                                </div>
                            </div>","200","","0","images/D76.png","","","","[""Fine"",""Coarse""]"
"","","","","","html-slider-response","135","268897","0.0-131.0","x7cof6buoz","NaN","<div style=""width:500px;"">
                                <p style=""font-size:50px; font-weight:bold;""
                                ></p>
                                <div style=""width:240px; margin: auto;"">
                                    <img src=""images/D102.png"" style= ""width:200px""alt=""img"">
                                </div>
                            </div>","200","","0","images/D102.png","","","","[""Fine"",""Coarse""]"
"","","","","","html-slider-response","136","270128","0.0-132.0","x7cof6buoz","NaN","<div style=""width:500px;"">
                                <p style=""font-size:50px; font-weight:bold;""
                                ></p>
                                <div style=""width:240px; margin: auto;"">
                                    <img src=""images/D37.png"" style= ""width:200px""alt=""img"">
                                </div>
                            </div>","200","","0","images/D37.png","","","","[""Fine"",""Coarse""]"
"","","","","","html-slider-response","137","271546","0.0-133.0","x7cof6buoz","NaN","<div style=""width:500px;"">
                                <p style=""font-size:50px; font-weight:bold;""
                                ></p>
                                <div style=""width:240px; margin: auto;"">
                                    <img src=""images/D17.png"" style= ""width:200px""alt=""img"">
                                </div>
                            </div>","200","","0","images/D17.png","","","","[""Fine"",""Coarse""]"
"","","","","","html-slider-response","138","272873","0.0-134.0","x7cof6buoz","NaN","<div style=""width:500px;"">
                                <p style=""font-size:50px; font-weight:bold;""
                                ></p>
                                <div style=""width:240px; margin: auto;"">
                                    <img src=""images/D34.png"" style= ""width:200px""alt=""img"">
                                </div>
                            </div>","200","","0","images/D34.png","","","","[""Fine"",""Coarse""]"
"","","","","","html-slider-response","139","274937","0.0-135.0","x7cof6buoz","NaN","<div style=""width:500px;"">
                                <p style=""font-size:50px; font-weight:bold;""
                                ></p>
                                <div style=""width:240px; margin: auto;"">
                                    <img src=""images/D83.png"" style= ""width:200px""alt=""img"">
                                </div>
                            </div>","200","","0","images/D83.png","","","","[""Fine"",""Coarse""]"
"","","","","","html-slider-response","140","276436","0.0-136.0","x7cof6buoz","NaN","<div style=""width:500px;"">
                                <p style=""font-size:50px; font-weight:bold;""
                                ></p>
                                <div style=""width:240px; margin: auto;"">
                                    <img src=""images/D96.png"" style= ""width:200px""alt=""img"">
                                </div>
                            </div>","200","","0","images/D96.png","","","","[""Fine"",""Coarse""]"
"","","","","","html-slider-response","141","278270","0.0-137.0","x7cof6buoz","NaN","<div style=""width:500px;"">
                                <p style=""font-size:50px; font-weight:bold;""
                                ></p>
                                <div style=""width:240px; margin: auto;"">
                                    <img src=""images/D36.png"" style= ""width:200px""alt=""img"">
                                </div>
                            </div>","200","","0","images/D36.png","","","","[""Fine"",""Coarse""]"
"","","","","","html-slider-response","142","279605","0.0-138.0","x7cof6buoz","NaN","<div style=""width:500px;"">
                                <p style=""font-size:50px; font-weight:bold;""
                                ></p>
                                <div style=""width:240px; margin: auto;"">
                                    <img src=""images/D80.png"" style= ""width:200px""alt=""img"">
                                </div>
                            </div>","200","","0","images/D80.png","","","","[""Fine"",""Coarse""]"
"","","","","","html-slider-response","143","280984","0.0-139.0","x7cof6buoz","NaN","<div style=""width:500px;"">
                                <p style=""font-size:50px; font-weight:bold;""
                                ></p>
                                <div style=""width:240px; margin: auto;"">
                                    <img src=""images/D101.png"" style= ""width:200px""alt=""img"">
                                </div>
                            </div>","200","","0","images/D101.png","","","","[""Fine"",""Coarse""]"
"","","","","","html-button-response","144","283612","0.0-140.0","x7cof6buoz","2124","You have completed the second block of trials out of six. Please click 'Continue' when you are ready proceed.","0","","","","","","",""
"","","","","","html-button-response","145","284516","0.0-141.0","x7cof6buoz","903","In the following trials, you will be asked to rate textures on the scale <b>Soft</b> versus <b>Hard</b>. Please click 'Continue' when you are ready proceed.","0","","","","","","",""
"","","","","","html-slider-response","146","299624","0.0-142.0","x7cof6buoz","NaN","<div style=""width:500px;"">
                                <p style=""font-size:50px; font-weight:bold;""
                                ></p>
                                <div style=""width:240px; margin: auto;"">
                                    <img src=""images/D87.png"" style= ""width:200px""alt=""img"">
                                </div>
                            </div>","200","","0","images/D87.png","","","","[""Hard"",""Soft""]"
"","","","","","html-slider-response","147","301117","0.0-143.0","x7cof6buoz","NaN","<div style=""width:500px;"">
                                <p style=""font-size:50px; font-weight:bold;""
                                ></p>
                                <div style=""width:240px; margin: auto;"">
                                    <img src=""images/D74.png"" style= ""width:200px""alt=""img"">
                                </div>
                            </div>","128","","0","images/D74.png","","","","[""Hard"",""Soft""]"
"","","","","","html-slider-response","148","302752","0.0-144.0","x7cof6buoz","NaN","<div style=""width:500px;"">
                                <p style=""font-size:50px; font-weight:bold;""
                                ></p>
                                <div style=""width:240px; margin: auto;"">
                                    <img src=""images/D8.png"" style= ""width:200px""alt=""img"">
                                </div>
                            </div>","182","","0","images/D8.png","","","","[""Hard"",""Soft""]"
"","","","","","html-slider-response","149","304635","0.0-145.0","x7cof6buoz","NaN","<div style=""width:500px;"">
                                <p style=""font-size:50px; font-weight:bold;""
                                ></p>
                                <div style=""width:240px; margin: auto;"">
                                    <img src=""images/D25.png"" style= ""width:200px""alt=""img"">
                                </div>
                            </div>","-200","","0","images/D25.png","","","","[""Hard"",""Soft""]"
"","","","","","html-slider-response","150","306145","0.0-146.0","x7cof6buoz","NaN","<div style=""width:500px;"">
                                <p style=""font-size:50px; font-weight:bold;""
                                ></p>
                                <div style=""width:240px; margin: auto;"">
                                    <img src=""images/D26.png"" style= ""width:200px""alt=""img"">
                                </div>
                            </div>","-200","","0","images/D26.png","","","","[""Hard"",""Soft""]"
"","","","","","html-slider-response","151","307441","0.0-147.0","x7cof6buoz","NaN","<div style=""width:500px;"">
                                <p style=""font-size:50px; font-weight:bold;""
                                ></p>
                                <div style=""width:240px; margin: auto;"">
                                    <img src=""images/D106.png"" style= ""width:200px""alt=""img"">
                                </div>
                            </div>","-196","","0","images/D106.png","","","","[""Hard"",""Soft""]"
"","","","","","html-slider-response","152","310391","0.0-148.0","x7cof6buoz","NaN","<div style=""width:500px;"">
                                <p style=""font-size:50px; font-weight:bold;""
                                ></p>
                                <div style=""width:240px; margin: auto;"">
                                    <img src=""images/D75.png"" style= ""width:200px""alt=""img"">
                                </div>
                            </div>","118","","0","images/D75.png","","","","[""Hard"",""Soft""]"
"","","","","","html-slider-response","153","311646","0.0-149.0","x7cof6buoz","NaN","<div style=""width:500px;"">
                                <p style=""font-size:50px; font-weight:bold;""
                                ></p>
                                <div style=""width:240px; margin: auto;"">
                                    <img src=""images/D52.png"" style= ""width:200px""alt=""img"">
                                </div>
                            </div>","-194","","0","images/D52.png","","","","[""Hard"",""Soft""]"
"","","","","","html-slider-response","154","312608","0.0-150.0","x7cof6buoz","NaN","<div style=""width:500px;"">
                                <p style=""font-size:50px; font-weight:bold;""
                                ></p>
                                <div style=""width:240px; margin: auto;"">
                                    <img src=""images/D4.png"" style= ""width:200px""alt=""img"">
                                </div>
                            </div>","-194","","0","images/D4.png","","","","[""Hard"",""Soft""]"
"","","","","","html-slider-response","155","313571","0.0-151.0","x7cof6buoz","NaN","<div style=""width:500px;"">
                                <p style=""font-size:50px; font-weight:bold;""
                                ></p>
                                <div style=""width:240px; margin: auto;"">
                                    <img src=""images/D55.png"" style= ""width:200px""alt=""img"">
                                </div>
                            </div>","-194","","0","images/D55.png","","","","[""Hard"",""Soft""]"
"","","","","","html-slider-response","156","314548","0.0-152.0","x7cof6buoz","NaN","<div style=""width:500px;"">
                                <p style=""font-size:50px; font-weight:bold;""
                                ></p>
                                <div style=""width:240px; margin: auto;"">
                                    <img src=""images/D95.png"" style= ""width:200px""alt=""img"">
                                </div>
                            </div>","-194","","0","images/D95.png","","","","[""Hard"",""Soft""]"
"","","","","","html-slider-response","157","315543","0.0-153.0","x7cof6buoz","NaN","<div style=""width:500px;"">
                                <p style=""font-size:50px; font-weight:bold;""
                                ></p>
                                <div style=""width:240px; margin: auto;"">
                                    <img src=""images/D77.png"" style= ""width:200px""alt=""img"">
                                </div>
                            </div>","-194","","0","images/D77.png","","","","[""Hard"",""Soft""]"
"","","","","","html-slider-response","158","316644","0.0-154.0","x7cof6buoz","NaN","<div style=""width:500px;"">
                                <p style=""font-size:50px; font-weight:bold;""
                                ></p>
                                <div style=""width:240px; margin: auto;"">
                                    <img src=""images/D36.png"" style= ""width:200px""alt=""img"">
                                </div>
                            </div>","-194","","0","images/D36.png","","","","[""Hard"",""Soft""]"
"","","","","","html-slider-response","159","317597","0.0-155.0","x7cof6buoz","NaN","<div style=""width:500px;"">
                                <p style=""font-size:50px; font-weight:bold;""
                                ></p>
                                <div style=""width:240px; margin: auto;"">
                                    <img src=""images/D51.png"" style= ""width:200px""alt=""img"">
                                </div>
                            </div>","-194","","0","images/D51.png","","","","[""Hard"",""Soft""]"
"","","","","","html-slider-response","160","320018","0.0-156.0","x7cof6buoz","NaN","<div style=""width:500px;"">
                                <p style=""font-size:50px; font-weight:bold;""
                                ></p>
                                <div style=""width:240px; margin: auto;"">
                                    <img src=""images/D82.png"" style= ""width:200px""alt=""img"">
                                </div>
                            </div>","-194","","0","images/D82.png","","","","[""Hard"",""Soft""]"
"","","","","","html-slider-response","161","321232","0.0-157.0","x7cof6buoz","NaN","<div style=""width:500px;"">
                                <p style=""font-size:50px; font-weight:bold;""
                                ></p>
                                <div style=""width:240px; margin: auto;"">
                                    <img src=""images/D57.png"" style= ""width:200px""alt=""img"">
                                </div>
                            </div>","-194","","0","images/D57.png","","","","[""Hard"",""Soft""]"
"","","","","","html-slider-response","162","322366","0.0-158.0","x7cof6buoz","NaN","<div style=""width:500px;"">
                                <p style=""font-size:50px; font-weight:bold;""
                                ></p>
                                <div style=""width:240px; margin: auto;"">
                                    <img src=""images/D14.png"" style= ""width:200px""alt=""img"">
                                </div>
                            </div>","-194","","0","images/D14.png","","","","[""Hard"",""Soft""]"
"","","","","","html-slider-response","163","323286","0.0-159.0","x7cof6buoz","NaN","<div style=""width:500px;"">
                                <p style=""font-size:50px; font-weight:bold;""
                                ></p>
                                <div style=""width:240px; margin: auto;"">
                                    <img src=""images/D68.png"" style= ""width:200px""alt=""img"">
                                </div>
                            </div>","-194","","0","images/D68.png","","","","[""Hard"",""Soft""]"
"","","","","","html-slider-response","164","324248","0.0-160.0","x7cof6buoz","NaN","<div style=""width:500px;"">
                                <p style=""font-size:50px; font-weight:bold;""
                                ></p>
                                <div style=""width:240px; margin: auto;"">
                                    <img src=""images/D20.png"" style= ""width:200px""alt=""img"">
                                </div>
                            </div>","-194","","0","images/D20.png","","","","[""Hard"",""Soft""]"
"","","","","","html-slider-response","165","325479","0.0-161.0","x7cof6buoz","NaN","<div style=""width:500px;"">
                                <p style=""font-size:50px; font-weight:bold;""
                                ></p>
                                <div style=""width:240px; margin: auto;"">
                                    <img src=""images/D29.png"" style= ""width:200px""alt=""img"">
                                </div>
                            </div>","-194","","0","images/D29.png","","","","[""Hard"",""Soft""]"
"","","","","","html-slider-response","166","326408","0.0-162.0","x7cof6buoz","NaN","<div style=""width:500px;"">
                                <p style=""font-size:50px; font-weight:bold;""
                                ></p>
                                <div style=""width:240px; margin: auto;"">
                                    <img src=""images/D66.png"" style= ""width:200px""alt=""img"">
                                </div>
                            </div>","-194","","0","images/D66.png","","","","[""Hard"",""Soft""]"
"","","","","","html-slider-response","167","327329","0.0-163.0","x7cof6buoz","NaN","<div style=""width:500px;"">
                                <p style=""font-size:50px; font-weight:bold;""
                                ></p>
                                <div style=""width:240px; margin: auto;"">
                                    <img src=""images/D83.png"" style= ""width:200px""alt=""img"">
                                </div>
                            </div>","-194","","0","images/D83.png","","","","[""Hard"",""Soft""]"
"","","","","","html-slider-response","168","328273","0.0-164.0","x7cof6buoz","NaN","<div style=""width:500px;"">
                                <p style=""font-size:50px; font-weight:bold;""
                                ></p>
                                <div style=""width:240px; margin: auto;"">
                                    <img src=""images/D64.png"" style= ""width:200px""alt=""img"">
                                </div>
                            </div>","-194","","0","images/D64.png","","","","[""Hard"",""Soft""]"
"","","","","","html-slider-response","169","329267","0.0-165.0","x7cof6buoz","NaN","<div style=""width:500px;"">
                                <p style=""font-size:50px; font-weight:bold;""
                                ></p>
                                <div style=""width:240px; margin: auto;"">
                                    <img src=""images/D46.png"" style= ""width:200px""alt=""img"">
                                </div>
                            </div>","-194","","0","images/D46.png","","","","[""Hard"",""Soft""]"
"","","","","","html-slider-response","170","330173","0.0-166.0","x7cof6buoz","NaN","<div style=""width:500px;"">
                                <p style=""font-size:50px; font-weight:bold;""
                                ></p>
                                <div style=""width:240px; margin: auto;"">
                                    <img src=""images/D22.png"" style= ""width:200px""alt=""img"">
                                </div>
                            </div>","-194","","0","images/D22.png","","","","[""Hard"",""Soft""]"
"","","","","","html-slider-response","171","331159","0.0-167.0","x7cof6buoz","NaN","<div style=""width:500px;"">
                                <p style=""font-size:50px; font-weight:bold;""
                                ></p>
                                <div style=""width:240px; margin: auto;"">
                                    <img src=""images/D19.png"" style= ""width:200px""alt=""img"">
                                </div>
                            </div>","-194","","0","images/D19.png","","","","[""Hard"",""Soft""]"
"","","","","","html-slider-response","172","332129","0.0-168.0","x7cof6buoz","NaN","<div style=""width:500px;"">
                                <p style=""font-size:50px; font-weight:bold;""
                                ></p>
                                <div style=""width:240px; margin: auto;"">
                                    <img src=""images/D84.png"" style= ""width:200px""alt=""img"">
                                </div>
                            </div>","-194","","0","images/D84.png","","","","[""Hard"",""Soft""]"
"","","","","","html-slider-response","173","333033","0.0-169.0","x7cof6buoz","NaN","<div style=""width:500px;"">
                                <p style=""font-size:50px; font-weight:bold;""
                                ></p>
                                <div style=""width:240px; margin: auto;"">
                                    <img src=""images/D101.png"" style= ""width:200px""alt=""img"">
                                </div>
                            </div>","-194","","0","images/D101.png","","","","[""Hard"",""Soft""]"
"","","","","","html-slider-response","174","333971","0.0-170.0","x7cof6buoz","NaN","<div style=""width:500px;"">
                                <p style=""font-size:50px; font-weight:bold;""
                                ></p>
                                <div style=""width:240px; margin: auto;"">
                                    <img src=""images/D85.png"" style= ""width:200px""alt=""img"">
                                </div>
                            </div>","-194","","0","images/D85.png","","","","[""Hard"",""Soft""]"
"","","","","","html-slider-response","175","334940","0.0-171.0","x7cof6buoz","NaN","<div style=""width:500px;"">
                                <p style=""font-size:50px; font-weight:bold;""
                                ></p>
                                <div style=""width:240px; margin: auto;"">
                                    <img src=""images/D3.png"" style= ""width:200px""alt=""img"">
                                </div>
                            </div>","-194","","0","images/D3.png","","","","[""Hard"",""Soft""]"
"","","","","","html-slider-response","176","336880","0.0-172.0","x7cof6buoz","NaN","<div style=""width:500px;"">
                                <p style=""font-size:50px; font-weight:bold;""
                                ></p>
                                <div style=""width:240px; margin: auto;"">
                                    <img src=""images/D78.png"" style= ""width:200px""alt=""img"">
                                </div>
                            </div>","-194","","0","images/D78.png","","","","[""Hard"",""Soft""]"
"","","","","","html-slider-response","177","338217","0.0-173.0","x7cof6buoz","NaN","<div style=""width:500px;"">
                                <p style=""font-size:50px; font-weight:bold;""
                                ></p>
                                <div style=""width:240px; margin: auto;"">
                                    <img src=""images/D53.png"" style= ""width:200px""alt=""img"">
                                </div>
                            </div>","-194","","0","images/D53.png","","","","[""Hard"",""Soft""]"
"","","","","","html-slider-response","178","339113","0.0-174.0","x7cof6buoz","NaN","<div style=""width:500px;"">
                                <p style=""font-size:50px; font-weight:bold;""
                                ></p>
                                <div style=""width:240px; margin: auto;"">
                                    <img src=""images/D34.png"" style= ""width:200px""alt=""img"">
                                </div>
                            </div>","-194","","0","images/D34.png","","","","[""Hard"",""Soft""]"
"","","","","","html-slider-response","179","341680","0.0-175.0","x7cof6buoz","NaN","<div style=""width:500px;"">
                                <p style=""font-size:50px; font-weight:bold;""
                                ></p>
                                <div style=""width:240px; margin: auto;"">
                                    <img src=""images/D37.png"" style= ""width:200px""alt=""img"">
                                </div>
                            </div>","113","","0","images/D37.png","","","","[""Hard"",""Soft""]"
"","","","","","html-slider-response","180","343969","0.0-176.0","x7cof6buoz","NaN","<div style=""width:500px;"">
                                <p style=""font-size:50px; font-weight:bold;""
                                ></p>
                                <div style=""width:240px; margin: auto;"">
                                    <img src=""images/D105.png"" style= ""width:200px""alt=""img"">
                                </div>
                            </div>","128","","0","images/D105.png","","","","[""Hard"",""Soft""]"
"","","","","","html-slider-response","181","345642","0.0-177.0","x7cof6buoz","NaN","<div style=""width:500px;"">
                                <p style=""font-size:50px; font-weight:bold;""
                                ></p>
                                <div style=""width:240px; margin: auto;"">
                                    <img src=""images/D92.png"" style= ""width:200px""alt=""img"">
                                </div>
                            </div>","-192","","0","images/D92.png","","","","[""Hard"",""Soft""]"
"","","","","","html-slider-response","182","346481","0.0-178.0","x7cof6buoz","NaN","<div style=""width:500px;"">
                                <p style=""font-size:50px; font-weight:bold;""
                                ></p>
                                <div style=""width:240px; margin: auto;"">
                                    <img src=""images/D79.png"" style= ""width:200px""alt=""img"">
                                </div>
                            </div>","-194","","0","images/D79.png","","","","[""Hard"",""Soft""]"
"","","","","","html-slider-response","183","347353","0.0-179.0","x7cof6buoz","NaN","<div style=""width:500px;"">
                                <p style=""font-size:50px; font-weight:bold;""
                                ></p>
                                <div style=""width:240px; margin: auto;"">
                                    <img src=""images/D56.png"" style= ""width:200px""alt=""img"">
                                </div>
                            </div>","-194","","0","images/D56.png","","","","[""Hard"",""Soft""]"
"","","","","","html-slider-response","184","348348","0.0-180.0","x7cof6buoz","NaN","<div style=""width:500px;"">
                                <p style=""font-size:50px; font-weight:bold;""
                                ></p>
                                <div style=""width:240px; margin: auto;"">
                                    <img src=""images/D103.png"" style= ""width:200px""alt=""img"">
                                </div>
                            </div>","-194","","0","images/D103.png","","","","[""Hard"",""Soft""]"
"","","","","","html-slider-response","185","349293","0.0-181.0","x7cof6buoz","NaN","<div style=""width:500px;"">
                                <p style=""font-size:50px; font-weight:bold;""
                                ></p>
                                <div style=""width:240px; margin: auto;"">
                                    <img src=""images/D35.png"" style= ""width:200px""alt=""img"">
                                </div>
                            </div>","-194","","0","images/D35.png","","","","[""Hard"",""Soft""]"
"","","","","","html-slider-response","186","350467","0.0-182.0","x7cof6buoz","NaN","<div style=""width:500px;"">
                                <p style=""font-size:50px; font-weight:bold;""
                                ></p>
                                <div style=""width:240px; margin: auto;"">
                                    <img src=""images/D80.png"" style= ""width:200px""alt=""img"">
                                </div>
                            </div>","-194","","0","images/D80.png","","","","[""Hard"",""Soft""]"
"","","","","","html-slider-response","187","351477","0.0-183.0","x7cof6buoz","NaN","<div style=""width:500px;"">
                                <p style=""font-size:50px; font-weight:bold;""
                                ></p>
                                <div style=""width:240px; margin: auto;"">
                                    <img src=""images/D6.png"" style= ""width:200px""alt=""img"">
