"success","timeout","failed_images","failed_audio","failed_video","trial_type","trial_index","time_elapsed","internal_node_id","subject_id","rt","stimulus","response","question_order","slider_start","image_path","practiceTrial","practiceTrialNum","correct","slider_labels"
"true","false","[]","[]","[]","preload","0","868","0.0-0.0","y1g1sgt39l","","","","","","","","","",""
"","","","","","html-button-response","1","8025","0.0-1.0","y1g1sgt39l","7154","<div style='text-align:center; font-size:20px; line-height:25px; width: 1200px;'>
                Welcome to our experiment! <br>
                <br>At the bottom of this screen, you will see a button that says 'Begin Experiment.
                <br>Please only click that button when you are ready to complete the 25 minute experiment in one sitting. <br>
                <br> Once you click that button, it will not be possible to restart the experiment. <br><br>","0","","","","","","",""
"true","","","","","fullscreen","2","12259","0.0-2.0","y1g1sgt39l","3231","","","","","","","","",""
"","","","","","survey-multi-select","3","547530","0.0-3.0","y1g1sgt39l","316025","","{""Consent"":[""<strong>I consent</strong>""]}","[0]","","","","","",""
"","","","","","html-button-response","4","549294","0.0-4.0","y1g1sgt39l","1763","Welcome! <p> This experiment involves two parts: demographic information, followed by the experimental task.<p> It will take about 25 minutes to complete both parts.","0","","","","","","",""
"","","","","","survey-text","5","564913","0.0-5.0","y1g1sgt39l","15615","","{""Age"":""20"",""Gender"":""female "",""Race/ethnicity"":""white ""}","","","","","","",""
"","","","","","html-slider-response","6","578428","0.0-6.0","y1g1sgt39l","13513","
                <div style='text-align:center; height: auto; margin-left=-100px; margin-bottom: -20px; font-size:20px; line-height:5px; width: 1200px;'>
                    <br>During this experiment, you will see a series of textures, one at a time, like the ones below: 
                </div>
                    <br>
                    <br>
                    <img src=""anchoring_visual_textures.png"" alt=""img"" style=""max-width:1200px; margin-left: -10px;"">
                </div>
                <div style=""clear: both;""></div>
                </div>
                    <div style='text-align:center; margin-left=-100px; font-size:20px; line-height:20px; width: 1200px; margin-top: -50px;'>
                    
                    <br> For each texture, you will be asked to rate where you think it falls on each of the response scales with the following endpoints:
                    </div>
                            <div style=""text-align: center; width: 1400px; "">
                                <p style=""font-size:20px; line-height:5px; ""><b>Stripey</b> versus <b>Blobby</b></p>
                                <p style=""font-size:20px; line-height:5px; ""><b>Rectangular</b> versus <b>Rounded</b></p>
                                <p style=""font-size:20px;line-height:5px;""><b>Fine</b> versus <b>Coarse</b></p>
                                <p style=""font-size:20px;line-height:5px; ""><b>Smooth</b> versus <b>Rough</b></p>
                                <p style=""font-size:20px;line-height:5px; ""><b>Non-Random</b> versus <b>Random</b></p>
                                <p style=""font-size:20px;line-height:5px;""><b>Soft</b> versus <b>Hard</b></p>
                            </div>
                            <div style='text-align:center; font-size:20px; line-height:20px; width: 1400px;'>
                    
                    Each trial will include one texture and one response scale. You will be asked to make your rating by sliding the cursor along a slider response scale like the one below.
                    <br><br> Before beginning, please look at the textures and scales. For each scale, think about the texture you associate most with the left endpoint. When you see that texture for that response scale, please click near the left of the scale.
                    <br><br> Now, please think about the texture you associate most with the right endpoint of each scale. When you see that texture for that response scale, please click near the right of the scale. 
                    <br><br> If you think a texture is not strongly associated with either endpoint of the scale, please click near the midpoint of the scale. Please use the full range of the scale. 
                    <br><br> You will be asked to rate each texture for a given scale before moving on to the next scale.
                    <br><br> Please press the 'Continue' button for instructions on how to use the slider.                     <br><br>
                ","null","","0","visual_textures_anchoring.png","true","","",""
"","","","","","html-button-response","7","586477","0.0-7.0","y1g1sgt39l","8048","<div style=""width:1200px; margin-top:-150px;""><p style=""text-align:center; font-size:24px;"">To move the slider, click and drag your cursor to the location of the scale where you would like to make your rating and then let go. <br><br> When you let go of the slider, your response will be recorded and the next trial will begin. <br><br><br>
                We are interested in your initial impressions of each texture and scale, so please go with your first intuition. <br><br>
                Before you begin the experiment, there will be four training trials for you to practice using the scale. <br><br><br><br></div>
                <div style=""width:1200px;""><p style=""text-align:center; font-size:20px;"">When you are ready to start the training trials, please click ""Continue"".</p></div>","0","","","","","","",""
"","","","","","html-slider-response","8","590140","0.0-8.0-0.0","y1g1sgt39l","NaN","<div style=""width:500px;"">
                                <p style=""font-size:25px;"">Please move the slider all the way to the <br> right endpoint of the scale</p>

                                </div>
                            </div>","200","","0","","true","0","true",""
"","","","","","html-button-response","9","591761","0.0-8.0-1.0","y1g1sgt39l","1117","<p align='center'><b>Good job!</b> Click on 'Continue' to proceed.</p>","0","","","","","","",""
"","","","","","html-slider-response","10","593772","0.0-9.0-0.0","y1g1sgt39l","NaN","<div style=""width:500px;"">
                                <p style=""font-size:25px;"">Please move the slider all the way to the <br> left endpoint of the scale</p>

                                </div>
                            </div>","-200","","0","","true","1","true",""
"","","","","","html-button-response","11","595045","0.0-9.0-1.0","y1g1sgt39l","770","<p align='center'><b>Good job!</b> Click on 'Continue' to proceed.</p>","0","","","","","","",""
"","","","","","html-slider-response","12","600707","0.0-10.0-0.0","y1g1sgt39l","NaN","<div style=""width:500px;"">
                                <p style=""font-size:25px;"">Please move the slider halfway between the center and right endpoint of the scale</p>

                                </div>
                            </div>","106","","0","","true","2","true",""
"","","","","","html-button-response","13","601946","0.0-10.0-1.0","y1g1sgt39l","736","<p align='center'><b>Good job!</b> Click on 'Continue' to proceed.</p>","0","","","","","","",""
"","","","","","html-slider-response","14","604423","0.0-11.0-0.0","y1g1sgt39l","NaN","<div style=""width:500px;"">
                                <p style=""font-size:25px;"">Please move the slider halfway between the center and left endpoint of the scale</p>

                                </div>
                            </div>","-114","","0","","true","3","false",""
"","","","","","html-button-response","15","605627","0.0-11.0-1.0","y1g1sgt39l","700","<p align='center'><b>Not quite!</b> The slider was not placed near the instructed locattion. Click on 'Continue' to try again. </p>","0","","","","","","",""
"","","","","","html-slider-response","16","613107","0.0-11.1-0.1","y1g1sgt39l","NaN","<div style=""width:500px;"">
                                <p style=""font-size:25px;"">Please move the slider halfway between the center and left endpoint of the scale</p>

                                </div>
                            </div>","-115","","0","","true","3","false",""
"","","","","","html-button-response","17","618394","0.0-11.1-1.1","y1g1sgt39l","4784","<p align='center'><b>Not quite!</b> The slider was not placed near the instructed locattion. Click on 'Continue' to try again. </p>","0","","","","","","",""
"","","","","","html-slider-response","18","627956","0.0-11.2-0.2","y1g1sgt39l","NaN","<div style=""width:500px;"">
                                <p style=""font-size:25px;"">Please move the slider halfway between the center and left endpoint of the scale</p>

                                </div>
                            </div>","-166","","0","","true","3","false",""
"","","","","","html-button-response","19","629961","0.0-11.2-1.2","y1g1sgt39l","1502","<p align='center'><b>Not quite!</b> The slider was not placed near the instructed locattion. Click on 'Continue' to try again. </p>","0","","","","","","",""
"","","","","","html-slider-response","20","633589","0.0-11.3-0.3","y1g1sgt39l","NaN","<div style=""width:500px;"">
                                <p style=""font-size:25px;"">Please move the slider halfway between the center and left endpoint of the scale</p>

                                </div>
                            </div>","-105","","0","","true","3","true",""
"","","","","","html-button-response","21","635043","0.0-11.3-1.3","y1g1sgt39l","951","<p align='center'><b>Good job!</b> Click on 'Continue' to proceed.</p>","0","","","","","","",""
"","","","","","html-button-response","22","639960","0.0-12.0","y1g1sgt39l","4916","<div style=""width:800px; margin-top:-300px;""><p style=""text-align:center; font-size:22px; line-height:25px;""""> Great job! You've completed the practice trials.</div>
                     <div style=""width:800px; margin-top:-20px;""><p style=""text-align:center""><br><br> In the following trials, you will be asked to rate textures on each scale one-by-one. <br> You will be given opportunities to take breaks when you have completed each block of trials. There are six total blocks of trials. <br><br> Please click continue to begin the main task.<br><br><br> </div>","0","","","","","","",""
"","","","","","html-button-response","23","651259","0.0-13.0","y1g1sgt39l","11299","In the following trials, you will be asked to rate textures on the scale <b>Fine</b> versus <b>Coarse</b>. Please click 'Continue' when you are ready proceed.","0","","","","","","",""
"","","","","","html-slider-response","24","660171","0.0-14.0","y1g1sgt39l","NaN","<div style=""width:500px;"">
                                <p style=""font-size:50px; font-weight:bold;""
                                ></p>
                                <div style=""width:240px; margin: auto;"">
                                    <img src=""images/D104.png"" style= ""width:200px""alt=""img"">
                                </div>
                            </div>","-117","","0","images/D104.png","","","","[""Fine"",""Coarse""]"
"","","","","","html-slider-response","25","664038","0.0-15.0","y1g1sgt39l","NaN","<div style=""width:500px;"">
                                <p style=""font-size:50px; font-weight:bold;""
                                ></p>
                                <div style=""width:240px; margin: auto;"">
                                    <img src=""images/D80.png"" style= ""width:200px""alt=""img"">
                                </div>
                            </div>","111","","0","images/D80.png","","","","[""Fine"",""Coarse""]"
"","","","","","html-slider-response","26","667272","0.0-16.0","y1g1sgt39l","NaN","<div style=""width:500px;"">
                                <p style=""font-size:50px; font-weight:bold;""
                                ></p>
                                <div style=""width:240px; margin: auto;"">
                                    <img src=""images/D18.png"" style= ""width:200px""alt=""img"">
                                </div>
                            </div>","109","","0","images/D18.png","","","","[""Fine"",""Coarse""]"
"","","","","","html-slider-response","27","669905","0.0-17.0","y1g1sgt39l","NaN","<div style=""width:500px;"">
                                <p style=""font-size:50px; font-weight:bold;""
                                ></p>
                                <div style=""width:240px; margin: auto;"">
                                    <img src=""images/D105.png"" style= ""width:200px""alt=""img"">
                                </div>
                            </div>","-111","","0","images/D105.png","","","","[""Fine"",""Coarse""]"
"","","","","","html-slider-response","28","672271","0.0-18.0","y1g1sgt39l","NaN","<div style=""width:500px;"">
                                <p style=""font-size:50px; font-weight:bold;""
                                ></p>
                                <div style=""width:240px; margin: auto;"">
                                    <img src=""images/D79.png"" style= ""width:200px""alt=""img"">
                                </div>
                            </div>","-111","","0","images/D79.png","","","","[""Fine"",""Coarse""]"
"","","","","","html-slider-response","29","674638","0.0-19.0","y1g1sgt39l","NaN","<div style=""width:500px;"">
                                <p style=""font-size:50px; font-weight:bold;""
                                ></p>
                                <div style=""width:240px; margin: auto;"">
                                    <img src=""images/D76.png"" style= ""width:200px""alt=""img"">
                                </div>
                            </div>","130","","0","images/D76.png","","","","[""Fine"",""Coarse""]"
"","","","","","html-slider-response","30","680705","0.0-20.0","y1g1sgt39l","NaN","<div style=""width:500px;"">
                                <p style=""font-size:50px; font-weight:bold;""
                                ></p>
                                <div style=""width:240px; margin: auto;"">
                                    <img src=""images/D102.png"" style= ""width:200px""alt=""img"">
                                </div>
                            </div>","100","","0","images/D102.png","","","","[""Fine"",""Coarse""]"
"","","","","","html-slider-response","31","690173","0.0-21.0","y1g1sgt39l","NaN","<div style=""width:500px;"">
                                <p style=""font-size:50px; font-weight:bold;""
                                ></p>
                                <div style=""width:240px; margin: auto;"">
                                    <img src=""images/D19.png"" style= ""width:200px""alt=""img"">
                                </div>
                            </div>","87","","0","images/D19.png","","","","[""Fine"",""Coarse""]"
"","","","","","html-slider-response","32","693971","0.0-22.0","y1g1sgt39l","NaN","<div style=""width:500px;"">
                                <p style=""font-size:50px; font-weight:bold;""
                                ></p>
                                <div style=""width:240px; margin: auto;"">
                                    <img src=""images/D56.png"" style= ""width:200px""alt=""img"">
                                </div>
                            </div>","120","","0","images/D56.png","","","","[""Fine"",""Coarse""]"
"","","","","","html-slider-response","33","696288","0.0-23.0","y1g1sgt39l","NaN","<div style=""width:500px;"">
                                <p style=""font-size:50px; font-weight:bold;""
                                ></p>
                                <div style=""width:240px; margin: auto;"">
                                    <img src=""images/D84.png"" style= ""width:200px""alt=""img"">
                                </div>
                            </div>","-138","","0","images/D84.png","","","","[""Fine"",""Coarse""]"
"","","","","","html-slider-response","34","698691","0.0-24.0","y1g1sgt39l","NaN","<div style=""width:500px;"">
                                <p style=""font-size:50px; font-weight:bold;""
                                ></p>
                                <div style=""width:240px; margin: auto;"">
                                    <img src=""images/D6.png"" style= ""width:200px""alt=""img"">
                                </div>
                            </div>","-200","","0","images/D6.png","","","","[""Fine"",""Coarse""]"
"","","","","","html-slider-response","35","702040","0.0-25.0","y1g1sgt39l","NaN","<div style=""width:500px;"">
                                <p style=""font-size:50px; font-weight:bold;""
                                ></p>
                                <div style=""width:240px; margin: auto;"">
                                    <img src=""images/D9.png"" style= ""width:200px""alt=""img"">
                                </div>
                            </div>","200","","0","images/D9.png","","","","[""Fine"",""Coarse""]"
"","","","","","html-slider-response","36","704507","0.0-26.0","y1g1sgt39l","NaN","<div style=""width:500px;"">
                                <p style=""font-size:50px; font-weight:bold;""
                                ></p>
                                <div style=""width:240px; margin: auto;"">
                                    <img src=""images/D52.png"" style= ""width:200px""alt=""img"">
                                </div>
                            </div>","-126","","0","images/D52.png","","","","[""Fine"",""Coarse""]"
"","","","","","html-slider-response","37","707887","0.0-27.0","y1g1sgt39l","NaN","<div style=""width:500px;"">
                                <p style=""font-size:50px; font-weight:bold;""
                                ></p>
                                <div style=""width:240px; margin: auto;"">
                                    <img src=""images/D35.png"" style= ""width:200px""alt=""img"">
                                </div>
                            </div>","122","","0","images/D35.png","","","","[""Fine"",""Coarse""]"
"","","","","","html-slider-response","38","711022","0.0-28.0","y1g1sgt39l","NaN","<div style=""width:500px;"">
                                <p style=""font-size:50px; font-weight:bold;""
                                ></p>
                                <div style=""width:240px; margin: auto;"">
                                    <img src=""images/D46.png"" style= ""width:200px""alt=""img"">
                                </div>
                            </div>","-104","","0","images/D46.png","","","","[""Fine"",""Coarse""]"
"","","","","","html-slider-response","39","713973","0.0-29.0","y1g1sgt39l","NaN","<div style=""width:500px;"">
                                <p style=""font-size:50px; font-weight:bold;""
                                ></p>
                                <div style=""width:240px; margin: auto;"">
                                    <img src=""images/D47.png"" style= ""width:200px""alt=""img"">
                                </div>
                            </div>","-152","","0","images/D47.png","","","","[""Fine"",""Coarse""]"
"","","","","","html-slider-response","40","716071","0.0-30.0","y1g1sgt39l","NaN","<div style=""width:500px;"">
                                <p style=""font-size:50px; font-weight:bold;""
                                ></p>
                                <div style=""width:240px; margin: auto;"">
                                    <img src=""images/D92.png"" style= ""width:200px""alt=""img"">
                                </div>
                            </div>","200","","0","images/D92.png","","","","[""Fine"",""Coarse""]"
"","","","","","html-slider-response","41","718474","0.0-31.0","y1g1sgt39l","NaN","<div style=""width:500px;"">
                                <p style=""font-size:50px; font-weight:bold;""
                                ></p>
                                <div style=""width:240px; margin: auto;"">
                                    <img src=""images/D26.png"" style= ""width:200px""alt=""img"">
                                </div>
                            </div>","200","","0","images/D26.png","","","","[""Fine"",""Coarse""]"
"","","","","","html-slider-response","42","720605","0.0-32.0","y1g1sgt39l","NaN","<div style=""width:500px;"">
                                <p style=""font-size:50px; font-weight:bold;""
                                ></p>
                                <div style=""width:240px; margin: auto;"">
                                    <img src=""images/D32.png"" style= ""width:200px""alt=""img"">
                                </div>
                            </div>","200","","0","images/D32.png","","","","[""Fine"",""Coarse""]"
"","","","","","html-slider-response","43","723056","0.0-33.0","y1g1sgt39l","NaN","<div style=""width:500px;"">
                                <p style=""font-size:50px; font-weight:bold;""
                                ></p>
                                <div style=""width:240px; margin: auto;"">
                                    <img src=""images/D51.png"" style= ""width:200px""alt=""img"">
                                </div>
                            </div>","-200","","0","images/D51.png","","","","[""Fine"",""Coarse""]"
"","","","","","html-slider-response","44","727637","0.0-34.0","y1g1sgt39l","NaN","<div style=""width:500px;"">
                                <p style=""font-size:50px; font-weight:bold;""
                                ></p>
                                <div style=""width:240px; margin: auto;"">
                                    <img src=""images/D1.png"" style= ""width:200px""alt=""img"">
                                </div>
                            </div>","154","","0","images/D1.png","","","","[""Fine"",""Coarse""]"
"","","","","","html-slider-response","45","729523","0.0-35.0","y1g1sgt39l","NaN","<div style=""width:500px;"">
                                <p style=""font-size:50px; font-weight:bold;""
                                ></p>
                                <div style=""width:240px; margin: auto;"">
                                    <img src=""images/D21.png"" style= ""width:200px""alt=""img"">
                                </div>
                            </div>","-200","","0","images/D21.png","","","","[""Fine"",""Coarse""]"
"","","","","","html-slider-response","46","731488","0.0-36.0","y1g1sgt39l","NaN","<div style=""width:500px;"">
                                <p style=""font-size:50px; font-weight:bold;""
                                ></p>
                                <div style=""width:240px; margin: auto;"">
                                    <img src=""images/D106.png"" style= ""width:200px""alt=""img"">
                                </div>
                            </div>","-200","","0","images/D106.png","","","","[""Fine"",""Coarse""]"
"","","","","","html-slider-response","47","734658","0.0-37.0","y1g1sgt39l","NaN","<div style=""width:500px;"">
                                <p style=""font-size:50px; font-weight:bold;""
                                ></p>
                                <div style=""width:240px; margin: auto;"">
                                    <img src=""images/D48.png"" style= ""width:200px""alt=""img"">
                                </div>
                            </div>","118","","0","images/D48.png","","","","[""Fine"",""Coarse""]"
"","","","","","html-slider-response","48","737587","0.0-38.0","y1g1sgt39l","NaN","<div style=""width:500px;"">
                                <p style=""font-size:50px; font-weight:bold;""
                                ></p>
                                <div style=""width:240px; margin: auto;"">
                                    <img src=""images/D111.png"" style= ""width:200px""alt=""img"">
                                </div>
                            </div>","-109","","0","images/D111.png","","","","[""Fine"",""Coarse""]"
"","","","","","html-slider-response","49","740358","0.0-39.0","y1g1sgt39l","NaN","<div style=""width:500px;"">
                                <p style=""font-size:50px; font-weight:bold;""
                                ></p>
                                <div style=""width:240px; margin: auto;"">
                                    <img src=""images/D3.png"" style= ""width:200px""alt=""img"">
                                </div>
                            </div>","200","","0","images/D3.png","","","","[""Fine"",""Coarse""]"
"","","","","","html-slider-response","50","742339","0.0-40.0","y1g1sgt39l","NaN","<div style=""width:500px;"">
                                <p style=""font-size:50px; font-weight:bold;""
                                ></p>
                                <div style=""width:240px; margin: auto;"">
                                    <img src=""images/D29.png"" style= ""width:200px""alt=""img"">
                                </div>
                            </div>","200","","0","images/D29.png","","","","[""Fine"",""Coarse""]"
"","","","","","html-slider-response","51","745238","0.0-41.0","y1g1sgt39l","NaN","<div style=""width:500px;"">
                                <p style=""font-size:50px; font-weight:bold;""
                                ></p>
                                <div style=""width:240px; margin: auto;"">
                                    <img src=""images/D101.png"" style= ""width:200px""alt=""img"">
                                </div>
                            </div>","-82","","0","images/D101.png","","","","[""Fine"",""Coarse""]"
"","","","","","html-slider-response","52","747221","0.0-42.0","y1g1sgt39l","NaN","<div style=""width:500px;"">
                                <p style=""font-size:50px; font-weight:bold;""
                                ></p>
                                <div style=""width:240px; margin: auto;"">
                                    <img src=""images/D103.png"" style= ""width:200px""alt=""img"">
                                </div>
                            </div>","-110","","0","images/D103.png","","","","[""Fine"",""Coarse""]"
"","","","","","html-slider-response","53","751008","0.0-43.0","y1g1sgt39l","NaN","<div style=""width:500px;"">
                                <p style=""font-size:50px; font-weight:bold;""
                                ></p>
                                <div style=""width:240px; margin: auto;"">
                                    <img src=""images/D65.png"" style= ""width:200px""alt=""img"">
                                </div>
                            </div>","131","","0","images/D65.png","","","","[""Fine"",""Coarse""]"
"","","","","","html-slider-response","54","752989","0.0-44.0","y1g1sgt39l","NaN","<div style=""width:500px;"">
                                <p style=""font-size:50px; font-weight:bold;""
                                ></p>
                                <div style=""width:240px; margin: auto;"">
                                    <img src=""images/D25.png"" style= ""width:200px""alt=""img"">
                                </div>
                            </div>","200","","0","images/D25.png","","","","[""Fine"",""Coarse""]"
"","","","","","html-slider-response","55","755772","0.0-45.0","y1g1sgt39l","NaN","<div style=""width:500px;"">
                                <p style=""font-size:50px; font-weight:bold;""
                                ></p>
                                <div style=""width:240px; margin: auto;"">
                                    <img src=""images/D75.png"" style= ""width:200px""alt=""img"">
                                </div>
                            </div>","-82","","0","images/D75.png","","","","[""Fine"",""Coarse""]"
"","","","","","html-slider-response","56","758306","0.0-46.0","y1g1sgt39l","NaN","<div style=""width:500px;"">
                                <p style=""font-size:50px; font-weight:bold;""
                                ></p>
                                <div style=""width:240px; margin: auto;"">
                                    <img src=""images/D95.png"" style= ""width:200px""alt=""img"">
                                </div>
                            </div>","200","","0","images/D95.png","","","","[""Fine"",""Coarse""]"
"","","","","","html-slider-response","57","760056","0.0-47.0","y1g1sgt39l","NaN","<div style=""width:500px;"">
                                <p style=""font-size:50px; font-weight:bold;""
                                ></p>
                                <div style=""width:240px; margin: auto;"">
                                    <img src=""images/D77.png"" style= ""width:200px""alt=""img"">
                                </div>
                            </div>","-200","","0","images/D77.png","","","","[""Fine"",""Coarse""]"
"","","","","","html-slider-response","58","761905","0.0-48.0","y1g1sgt39l","NaN","<div style=""width:500px;"">
                                <p style=""font-size:50px; font-weight:bold;""
                                ></p>
                                <div style=""width:240px; margin: auto;"">
                                    <img src=""images/D82.png"" style= ""width:200px""alt=""img"">
                                </div>
                            </div>","155","","0","images/D82.png","","","","[""Fine"",""Coarse""]"
"","","","","","html-slider-response","59","764107","0.0-49.0","y1g1sgt39l","NaN","<div style=""width:500px;"">
                                <p style=""font-size:50px; font-weight:bold;""
                                ></p>
                                <div style=""width:240px; margin: auto;"">
                                    <img src=""images/D81.png"" style= ""width:200px""alt=""img"">
                                </div>
                            </div>","165","","0","images/D81.png","","","","[""Fine"",""Coarse""]"
"","","","","","html-slider-response","60","765938","0.0-50.0","y1g1sgt39l","NaN","<div style=""width:500px;"">
                                <p style=""font-size:50px; font-weight:bold;""
                                ></p>
                                <div style=""width:240px; margin: auto;"">
                                    <img src=""images/D64.png"" style= ""width:200px""alt=""img"">
                                </div>
                            </div>","160","","0","images/D64.png","","","","[""Fine"",""Coarse""]"
"","","","","","html-slider-response","61","767637","0.0-51.0","y1g1sgt39l","NaN","<div style=""width:500px;"">
                                <p style=""font-size:50px; font-weight:bold;""
                                ></p>
                                <div style=""width:240px; margin: auto;"">
                                    <img src=""images/D20.png"" style= ""width:200px""alt=""img"">
                                </div>
                            </div>","-24","","0","images/D20.png","","","","[""Fine"",""Coarse""]"
"","","","","","html-slider-response","62","769506","0.0-52.0","y1g1sgt39l","NaN","<div style=""width:500px;"">
                                <p style=""font-size:50px; font-weight:bold;""
                                ></p>
                                <div style=""width:240px; margin: auto;"">
                                    <img src=""images/D68.png"" style= ""width:200px""alt=""img"">
                                </div>
                            </div>","-137","","0","images/D68.png","","","","[""Fine"",""Coarse""]"
"","","","","","html-slider-response","63","771287","0.0-53.0","y1g1sgt39l","NaN","<div style=""width:500px;"">
                                <p style=""font-size:50px; font-weight:bold;""
                                ></p>
                                <div style=""width:240px; margin: auto;"">
                                    <img src=""images/D78.png"" style= ""width:200px""alt=""img"">
                                </div>
                            </div>","-190","","0","images/D78.png","","","","[""Fine"",""Coarse""]"
"","","","","","html-slider-response","64","772905","0.0-54.0","y1g1sgt39l","NaN","<div style=""width:500px;"">
                                <p style=""font-size:50px; font-weight:bold;""
                                ></p>
                                <div style=""width:240px; margin: auto;"">
                                    <img src=""images/D49.png"" style= ""width:200px""alt=""img"">
                                </div>
                            </div>","-200","","0","images/D49.png","","","","[""Fine"",""Coarse""]"
"","","","","","html-slider-response","65","775271","0.0-55.0","y1g1sgt39l","NaN","<div style=""width:500px;"">
                                <p style=""font-size:50px; font-weight:bold;""
                                ></p>
                                <div style=""width:240px; margin: auto;"">
                                    <img src=""images/D24.png"" style= ""width:200px""alt=""img"">
                                </div>
                            </div>","134","","0","images/D24.png","","","","[""Fine"",""Coarse""]"
"","","","","","html-slider-response","66","777373","0.0-56.0","y1g1sgt39l","NaN","<div style=""width:500px;"">
                                <p style=""font-size:50px; font-weight:bold;""
                                ></p>
                                <div style=""width:240px; margin: auto;"">
                                    <img src=""images/D22.png"" style= ""width:200px""alt=""img"">
                                </div>
                            </div>","-69","","0","images/D22.png","","","","[""Fine"",""Coarse""]"
"","","","","","html-slider-response","67","780121","0.0-57.0","y1g1sgt39l","NaN","<div style=""width:500px;"">
                                <p style=""font-size:50px; font-weight:bold;""
                                ></p>
                                <div style=""width:240px; margin: auto;"">
                                    <img src=""images/D87.png"" style= ""width:200px""alt=""img"">
                                </div>
                            </div>","90","","0","images/D87.png","","","","[""Fine"",""Coarse""]"
"","","","","","html-slider-response","68","782340","0.0-58.0","y1g1sgt39l","NaN","<div style=""width:500px;"">
                                <p style=""font-size:50px; font-weight:bold;""
                                ></p>
                                <div style=""width:240px; margin: auto;"">
                                    <img src=""images/D17.png"" style= ""width:200px""alt=""img"">
                                </div>
                            </div>","90","","0","images/D17.png","","","","[""Fine"",""Coarse""]"
"","","","","","html-slider-response","69","784221","0.0-59.0","y1g1sgt39l","NaN","<div style=""width:500px;"">
                                <p style=""font-size:50px; font-weight:bold;""
                                ></p>
                                <div style=""width:240px; margin: auto;"">
                                    <img src=""images/D53.png"" style= ""width:200px""alt=""img"">
                                </div>
                            </div>","-200","","0","images/D53.png","","","","[""Fine"",""Coarse""]"
"","","","","","html-slider-response","70","787871","0.0-60.0","y1g1sgt39l","NaN","<div style=""width:500px;"">
                                <p style=""font-size:50px; font-weight:bold;""
                                ></p>
                                <div style=""width:240px; margin: auto;"">
                                    <img src=""images/D55.png"" style= ""width:200px""alt=""img"">
                                </div>
                            </div>","-95","","0","images/D55.png","","","","[""Fine"",""Coarse""]"
"","","","","","html-slider-response","71","790388","0.0-61.0","y1g1sgt39l","NaN","<div style=""width:500px;"">
                                <p style=""font-size:50px; font-weight:bold;""
                                ></p>
                                <div style=""width:240px; margin: auto;"">
                                    <img src=""images/D96.png"" style= ""width:200px""alt=""img"">
                                </div>
                            </div>","200","","0","images/D96.png","","","","[""Fine"",""Coarse""]"
"","","","","","html-slider-response","72","1436498","0.0-62.0","y1g1sgt39l","NaN","<div style=""width:500px;"">
                                <p style=""font-size:50px; font-weight:bold;""
                                ></p>
                                <div style=""width:240px; margin: auto;"">
                                    <img src=""images/D37.png"" style= ""width:200px""alt=""img"">
                                </div>
                            </div>","124","","0","images/D37.png","","","","[""Fine"",""Coarse""]"
"","","","","","html-slider-response","73","1438881","0.0-63.0","y1g1sgt39l","NaN","<div style=""width:500px;"">
                                <p style=""font-size:50px; font-weight:bold;""
                                ></p>
                                <div style=""width:240px; margin: auto;"">
                                    <img src=""images/D74.png"" style= ""width:200px""alt=""img"">
                                </div>
                            </div>","143","","0","images/D74.png","","","","[""Fine"",""Coarse""]"
"","","","","","html-slider-response","74","1440364","0.0-64.0","y1g1sgt39l","NaN","<div style=""width:500px;"">
                                <p style=""font-size:50px; font-weight:bold;""
                                ></p>
                                <div style=""width:240px; margin: auto;"">
                                    <img src=""images/D11.png"" style= ""width:200px""alt=""img"">
                                </div>
                            </div>","12","","0","images/D11.png","","","","[""Fine"",""Coarse""]"
"","","","","","html-slider-response","75","1442015","0.0-65.0","y1g1sgt39l","NaN","<div style=""width:500px;"">
                                <p style=""font-size:50px; font-weight:bold;""
                                ></p>
                                <div style=""width:240px; margin: auto;"">
                                    <img src=""images/D83.png"" style= ""width:200px""alt=""img"">
                                </div>
                            </div>","-122","","0","images/D83.png","","","","[""Fine"",""Coarse""]"
"","","","","","html-slider-response","76","1443965","0.0-66.0","y1g1sgt39l","NaN","<div style=""width:500px;"">
                                <p style=""font-size:50px; font-weight:bold;""
                                ></p>
                                <div style=""width:240px; margin: auto;"">
                                    <img src=""images/D4.png"" style= ""width:200px""alt=""img"">
                                </div>
                            </div>","200","","0","images/D4.png","","","","[""Fine"",""Coarse""]"
"","","","","","html-slider-response","77","1446265","0.0-67.0","y1g1sgt39l","NaN","<div style=""width:500px;"">
                                <p style=""font-size:50px; font-weight:bold;""
                                ></p>
                                <div style=""width:240px; margin: auto;"">
                                    <img src=""images/D8.png"" style= ""width:200px""alt=""img"">
                                </div>
                            </div>","-78","","0","images/D8.png","","","","[""Fine"",""Coarse""]"
"","","","","","html-slider-response","78","1448416","0.0-68.0","y1g1sgt39l","NaN","<div style=""width:500px;"">
                                <p style=""font-size:50px; font-weight:bold;""
                                ></p>
                                <div style=""width:240px; margin: auto;"">
                                    <img src=""images/D94.png"" style= ""width:200px""alt=""img"">
                                </div>
                            </div>","200","","0","images/D94.png","","","","[""Fine"",""Coarse""]"
"","","","","","html-slider-response","79","1450099","0.0-69.0","y1g1sgt39l","NaN","<div style=""width:500px;"">
                                <p style=""font-size:50px; font-weight:bold;""
                                ></p>
                                <div style=""width:240px; margin: auto;"">
                                    <img src=""images/D36.png"" style= ""width:200px""alt=""img"">
                                </div>
                            </div>","-146","","0","images/D36.png","","","","[""Fine"",""Coarse""]"
"","","","","","html-slider-response","80","1452166","0.0-70.0","y1g1sgt39l","NaN","<div style=""width:500px;"">
                                <p style=""font-size:50px; font-weight:bold;""
                                ></p>
                                <div style=""width:240px; margin: auto;"">
                                    <img src=""images/D66.png"" style= ""width:200px""alt=""img"">
                                </div>
                            </div>","-113","","0","images/D66.png","","","","[""Fine"",""Coarse""]"
"","","","","","html-slider-response","81","1469748","0.0-71.0","y1g1sgt39l","NaN","<div style=""width:500px;"">
                                <p style=""font-size:50px; font-weight:bold;""
                                ></p>
                                <div style=""width:240px; margin: auto;"">
                                    <img src=""images/D57.png"" style= ""width:200px""alt=""img"">
                                </div>
                            </div>","200","","0","images/D57.png","","","","[""Fine"",""Coarse""]"
"","","","","","html-slider-response","82","1474581","0.0-72.0","y1g1sgt39l","NaN","<div style=""width:500px;"">
                                <p style=""font-size:50px; font-weight:bold;""
                                ></p>
                                <div style=""width:240px; margin: auto;"">
                                    <img src=""images/D85.png"" style= ""width:200px""alt=""img"">
                                </div>
                            </div>","200","","0","images/D85.png","","","","[""Fine"",""Coarse""]"
"","","","","","html-slider-response","83","1476231","0.0-73.0","y1g1sgt39l","NaN","<div style=""width:500px;"">
                                <p style=""font-size:50px; font-weight:bold;""
                                ></p>
                                <div style=""width:240px; margin: auto;"">
                                    <img src=""images/D34.png"" style= ""width:200px""alt=""img"">
                                </div>
                            </div>","187","","0","images/D34.png","","","","[""Fine"",""Coarse""]"
"","","","","","html-slider-response","84","1477682","0.0-74.0","y1g1sgt39l","NaN","<div style=""width:500px;"">
                                <p style=""font-size:50px; font-weight:bold;""
                                ></p>
                                <div style=""width:240px; margin: auto;"">
                                    <img src=""images/D16.png"" style= ""width:200px""alt=""img"">
                                </div>
                            </div>","-72","","0","images/D16.png","","","","[""Fine"",""Coarse""]"
"","","","","","html-slider-response","85","1479032","0.0-75.0","y1g1sgt39l","NaN","<div style=""width:500px;"">
                                <p style=""font-size:50px; font-weight:bold;""
                                ></p>
                                <div style=""width:240px; margin: auto;"">
                                    <img src=""images/D14.png"" style= ""width:200px""alt=""img"">
                                </div>
                            </div>","-115","","0","images/D14.png","","","","[""Fine"",""Coarse""]"
"","","","","","html-button-response","86","2246760","0.0-76.0","y1g1sgt39l","19956","You have completed the first block of trials out of six. Please click 'Continue' when you are ready proceed.","0","","","","","","",""
"","","","","","html-button-response","87","2276637","0.0-77.0","y1g1sgt39l","29853","In the following trials, you will be asked to rate textures on the scale <b>Non-Random</b> versus <b>Random</b>. Please click 'Continue' when you are ready proceed.","0","","","","","","",""
"","","","","","html-slider-response","88","2281650","0.0-78.0","y1g1sgt39l","NaN","<div style=""width:500px;"">
                                <p style=""font-size:50px; font-weight:bold;""
                                ></p>
                                <div style=""width:240px; margin: auto;"">
                                    <img src=""images/D104.png"" style= ""width:200px""alt=""img"">
                                </div>
                            </div>","-104","","0","images/D104.png","","","","[""Non-random"",""Random""]"
"","","","","","html-slider-response","89","2284137","0.0-79.0","y1g1sgt39l","NaN","<div style=""width:500px;"">
                                <p style=""font-size:50px; font-weight:bold;""
                                ></p>
                                <div style=""width:240px; margin: auto;"">
                                    <img src=""images/D80.png"" style= ""width:200px""alt=""img"">
                                </div>
                            </div>","-100","","0","images/D80.png","","","","[""Non-random"",""Random""]"
"","","","","","html-slider-response","90","2286803","0.0-80.0","y1g1sgt39l","NaN","<div style=""width:500px;"">
                                <p style=""font-size:50px; font-weight:bold;""
                                ></p>
                                <div style=""width:240px; margin: auto;"">
                                    <img src=""images/D18.png"" style= ""width:200px""alt=""img"">
                                </div>
                            </div>","-124","","0","images/D18.png","","","","[""Non-random"",""Random""]"
"","","","","","html-slider-response","91","2289504","0.0-81.0","y1g1sgt39l","NaN","<div style=""width:500px;"">
                                <p style=""font-size:50px; font-weight:bold;""
                                ></p>
                                <div style=""width:240px; margin: auto;"">
                                    <img src=""images/D105.png"" style= ""width:200px""alt=""img"">
                                </div>
                            </div>","-109","","0","images/D105.png","","","","[""Non-random"",""Random""]"
"","","","","","html-slider-response","92","2291251","0.0-82.0","y1g1sgt39l","NaN","<div style=""width:500px;"">
                                <p style=""font-size:50px; font-weight:bold;""
                                ></p>
                                <div style=""width:240px; margin: auto;"">
                                    <img src=""images/D79.png"" style= ""width:200px""alt=""img"">
                                </div>
                            </div>","-103","","0","images/D79.png","","","","[""Non-random"",""Random""]"
"","","","","","html-slider-response","93","2292985","0.0-83.0","y1g1sgt39l","NaN","<div style=""width:500px;"">
                                <p style=""font-size:50px; font-weight:bold;""
                                ></p>
                                <div style=""width:240px; margin: auto;"">
                                    <img src=""images/D76.png"" style= ""width:200px""alt=""img"">
                                </div>
                            </div>","-97","","0","images/D76.png","","","","[""Non-random"",""Random""]"
"","","","","","html-slider-response","94","2295002","0.0-84.0","y1g1sgt39l","NaN","<div style=""width:500px;"">
                                <p style=""font-size:50px; font-weight:bold;""
                                ></p>
                                <div style=""width:240px; margin: auto;"">
                                    <img src=""images/D102.png"" style= ""width:200px""alt=""img"">
                                </div>
                            </div>","-200","","0","images/D102.png","","","","[""Non-random"",""Random""]"
"","","","","","html-slider-response","95","2297719","0.0-85.0","y1g1sgt39l","NaN","<div style=""width:500px;"">
                                <p style=""font-size:50px; font-weight:bold;""
                                ></p>
                                <div style=""width:240px; margin: auto;"">
                                    <img src=""images/D19.png"" style= ""width:200px""alt=""img"">
                                </div>
                            </div>","-46","","0","images/D19.png","","","","[""Non-random"",""Random""]"
"","","","","","html-slider-response","96","2299768","0.0-86.0","y1g1sgt39l","NaN","<div style=""width:500px;"">
                                <p style=""font-size:50px; font-weight:bold;""
                                ></p>
                                <div style=""width:240px; margin: auto;"">
                                    <img src=""images/D56.png"" style= ""width:200px""alt=""img"">
                                </div>
                            </div>","-200","","0","images/D56.png","","","","[""Non-random"",""Random""]"
"","","","","","html-slider-response","97","2303885","0.0-87.0","y1g1sgt39l","NaN","<div style=""width:500px;"">
                                <p style=""font-size:50px; font-weight:bold;""
                                ></p>
                                <div style=""width:240px; margin: auto;"">
                                    <img src=""images/D84.png"" style= ""width:200px""alt=""img"">
                                </div>
                            </div>","-53","","0","images/D84.png","","","","[""Non-random"",""Random""]"
"","","","","","html-slider-response","98","2305919","0.0-88.0","y1g1sgt39l","NaN","<div style=""width:500px;"">
                                <p style=""font-size:50px; font-weight:bold;""
                                ></p>
                                <div style=""width:240px; margin: auto;"">
                                    <img src=""images/D6.png"" style= ""width:200px""alt=""img"">
                                </div>
                            </div>","-200","","0","images/D6.png","","","","[""Non-random"",""Random""]"
"","","","","","html-slider-response","99","2308986","0.0-89.0","y1g1sgt39l","NaN","<div style=""width:500px;"">
                                <p style=""font-size:50px; font-weight:bold;""
                                ></p>
                                <div style=""width:240px; margin: auto;"">
                                    <img src=""images/D9.png"" style= ""width:200px""alt=""img"">
                                </div>
                            </div>","99","","0","images/D9.png","","","","[""Non-random"",""Random""]"
"","","","","","html-slider-response","100","2312272","0.0-90.0","y1g1sgt39l","NaN","<div style=""width:500px;"">
                                <p style=""font-size:50px; font-weight:bold;""
                                ></p>
                                <div style=""width:240px; margin: auto;"">
                                    <img src=""images/D52.png"" style= ""width:200px""alt=""img"">
                                </div>
                            </div>","-200","","0","images/D52.png","","","","[""Non-random"",""Random""]"
"","","","","","html-slider-response","101","2317954","0.0-91.0","y1g1sgt39l","NaN","<div style=""width:500px;"">
                                <p style=""font-size:50px; font-weight:bold;""
                                ></p>
                                <div style=""width:240px; margin: auto;"">
                                    <img src=""images/D35.png"" style= ""width:200px""alt=""img"">
                                </div>
                            </div>","-60","","0","images/D35.png","","","","[""Non-random"",""Random""]"
"","","","","","html-slider-response","102","2320219","0.0-92.0","y1g1sgt39l","NaN","<div style=""width:500px;"">
                                <p style=""font-size:50px; font-weight:bold;""
                                ></p>
                                <div style=""width:240px; margin: auto;"">
                                    <img src=""images/D46.png"" style= ""width:200px""alt=""img"">
                                </div>
                            </div>","-198","","0","images/D46.png","","","","[""Non-random"",""Random""]"
"","","","","","html-slider-response","103","2322869","0.0-93.0","y1g1sgt39l","NaN","<div style=""width:500px;"">
                                <p style=""font-size:50px; font-weight:bold;""
                                ></p>
                                <div style=""width:240px; margin: auto;"">
                                    <img src=""images/D47.png"" style= ""width:200px""alt=""img"">
                                </div>
                            </div>","-200","","0","images/D47.png","","","","[""Non-random"",""Random""]"
"","","","","","html-slider-response","104","2325903","0.0-94.0","y1g1sgt39l","NaN","<div style=""width:500px;"">
                                <p style=""font-size:50px; font-weight:bold;""
                                ></p>
                                <div style=""width:240px; margin: auto;"">
                                    <img src=""images/D92.png"" style= ""width:200px""alt=""img"">
                                </div>
                            </div>","98","","0","images/D92.png","","","","[""Non-random"",""Random""]"
"","","","","","html-slider-response","105","2328056","0.0-95.0","y1g1sgt39l","NaN","<div style=""width:500px;"">
                                <p style=""font-size:50px; font-weight:bold;""
                                ></p>
                                <div style=""width:240px; margin: auto;"">
                                    <img src=""images/D26.png"" style= ""width:200px""alt=""img"">
                                </div>
                            </div>","-200","","0","images/D26.png","","","","[""Non-random"",""Random""]"
"","","","","","html-slider-response","106","2330404","0.0-96.0","y1g1sgt39l","NaN","<div style=""width:500px;"">
                                <p style=""font-size:50px; font-weight:bold;""
                                ></p>
                                <div style=""width:240px; margin: auto;"">
                                    <img src=""images/D32.png"" style= ""width:200px""alt=""img"">
                                </div>
                            </div>","200","","0","images/D32.png","","","","[""Non-random"",""Random""]"
"","","","","","html-slider-response","107","2333738","0.0-97.0","y1g1sgt39l","NaN","<div style=""width:500px;"">
                                <p style=""font-size:50px; font-weight:bold;""
                                ></p>
                                <div style=""width:240px; margin: auto;"">
                                    <img src=""images/D51.png"" style= ""width:200px""alt=""img"">
                                </div>
                            </div>","-52","","0","images/D51.png","","","","[""Non-random"",""Random""]"
"","","","","","html-slider-response","108","2336206","0.0-98.0","y1g1sgt39l","NaN","<div style=""width:500px;"">
                                <p style=""font-size:50px; font-weight:bold;""
                                ></p>
                                <div style=""width:240px; margin: auto;"">
                                    <img src=""images/D1.png"" style= ""width:200px""alt=""img"">
                                </div>
                            </div>","-200","","0","images/D1.png","","","","[""Non-random"",""Random""]"
"","","","","","html-slider-response","109","2338421","0.0-99.0","y1g1sgt39l","NaN","<div style=""width:500px;"">
                                <p style=""font-size:50px; font-weight:bold;""
                                ></p>
                                <div style=""width:240px; margin: auto;"">
                                    <img src=""images/D21.png"" style= ""width:200px""alt=""img"">
                                </div>
                            </div>","-200","","0","images/D21.png","","","","[""Non-random"",""Random""]"
"","","","","","html-slider-response","110","2341120","0.0-100.0","y1g1sgt39l","NaN","<div style=""width:500px;"">
                                <p style=""font-size:50px; font-weight:bold;""
                                ></p>
                                <div style=""width:240px; margin: auto;"">
                                    <img src=""images/D106.png"" style= ""width:200px""alt=""img"">
                                </div>
                            </div>","-109","","0","images/D106.png","","","","[""Non-random"",""Random""]"
"","","","","","html-slider-response","111","2344257","0.0-101.0","y1g1sgt39l","NaN","<div style=""width:500px;"">
                                <p style=""font-size:50px; font-weight:bold;""
                                ></p>
                                <div style=""width:240px; margin: auto;"">
                                    <img src=""images/D48.png"" style= ""width:200px""alt=""img"">
                                </div>
                            </div>","-200","","0","images/D48.png","","","","[""Non-random"",""Random""]"
"","","","","","html-slider-response","112","2346505","0.0-102.0","y1g1sgt39l","NaN","<div style=""width:500px;"">
                                <p style=""font-size:50px; font-weight:bold;""
                                ></p>
                                <div style=""width:240px; margin: auto;"">
                                    <img src=""images/D111.png"" style= ""width:200px""alt=""img"">
                                </div>
                            </div>","107","","0","images/D111.png","","","","[""Non-random"",""Random""]"
"","","","","","html-slider-response","113","2350391","0.0-103.0","y1g1sgt39l","NaN","<div style=""width:500px;"">
                                <p style=""font-size:50px; font-weight:bold;""
                                ></p>
                                <div style=""width:240px; margin: auto;"">
                                    <img src=""images/D3.png"" style= ""width:200px""alt=""img"">
                                </div>
                            </div>","-130","","0","images/D3.png","","","","[""Non-random"",""Random""]"
"","","","","","html-slider-response","114","2352304","0.0-104.0","y1g1sgt39l","NaN","<div style=""width:500px;"">
                                <p style=""font-size:50px; font-weight:bold;""
                                ></p>
                                <div style=""width:240px; margin: auto;"">
                                    <img src=""images/D29.png"" style= ""width:200px""alt=""img"">
                                </div>
                            </div>","185","","0","images/D29.png","","","","[""Non-random"",""Random""]"
"","","","","","html-slider-response","115","2354356","0.0-105.0","y1g1sgt39l","NaN","<div style=""width:500px;"">
                                <p style=""font-size:50px; font-weight:bold;""
                                ></p>
                                <div style=""width:240px; margin: auto;"">
                                    <img src=""images/D101.png"" style= ""width:200px""alt=""img"">
                                </div>
                            </div>","-200","","0","images/D101.png","","","","[""Non-random"",""Random""]"
"","","","","","html-slider-response","116","2359355","0.0-106.0","y1g1sgt39l","NaN","<div style=""width:500px;"">
                                <p style=""font-size:50px; font-weight:bold;""
                                ></p>
                                <div style=""width:240px; margin: auto;"">
                                    <img src=""images/D103.png"" style= ""width:200px""alt=""img"">
                                </div>
                            </div>","-70","","0","images/D103.png","","","","[""Non-random"",""Random""]"
"","","","","","html-slider-response","117","2361188","0.0-107.0","y1g1sgt39l","NaN","<div style=""width:500px;"">
                                <p style=""font-size:50px; font-weight:bold;""
                                ></p>
                                <div style=""width:240px; margin: auto;"">
                                    <img src=""images/D65.png"" style= ""width:200px""alt=""img"">
                                </div>
                            </div>","-200","","0","images/D65.png","","","","[""Non-random"",""Random""]"
"","","","","","html-slider-response","118","2363873","0.0-108.0","y1g1sgt39l","NaN","<div style=""width:500px;"">
                                <p style=""font-size:50px; font-weight:bold;""
                                ></p>
                                <div style=""width:240px; margin: auto;"">
                                    <img src=""images/D25.png"" style= ""width:200px""alt=""img"">
                                </div>
                            </div>","-200","","0","images/D25.png","","","","[""Non-random"",""Random""]"
"","","","","","html-slider-response","119","2366654","0.0-109.0","y1g1sgt39l","NaN","<div style=""width:500px;"">
                                <p style=""font-size:50px; font-weight:bold;""
                                ></p>
                                <div style=""width:240px; margin: auto;"">
                                    <img src=""images/D75.png"" style= ""width:200px""alt=""img"">
                                </div>
                            </div>","160","","0","images/D75.png","","","","[""Non-random"",""Random""]"
"","","","","","html-slider-response","120","2368589","0.0-110.0","y1g1sgt39l","NaN","<div style=""width:500px;"">
                                <p style=""font-size:50px; font-weight:bold;""
                                ></p>
                                <div style=""width:240px; margin: auto;"">
                                    <img src=""images/D95.png"" style= ""width:200px""alt=""img"">
                                </div>
                            </div>","-200","","0","images/D95.png","","","","[""Non-random"",""Random""]"
"","","","","","html-slider-response","121","2373004","0.0-111.0","y1g1sgt39l","NaN","<div style=""width:500px;"">
                                <p style=""font-size:50px; font-weight:bold;""
                                ></p>
                                <div style=""width:240px; margin: auto;"">
                                    <img src=""images/D77.png"" style= ""width:200px""alt=""img"">
                                </div>
                            </div>","-109","","0","images/D77.png","","","","[""Non-random"",""Random""]"
"","","","","","html-slider-response","122","2374738","0.0-112.0","y1g1sgt39l","NaN","<div style=""width:500px;"">
                                <p style=""font-size:50px; font-weight:bold;""
                                ></p>
                                <div style=""width:240px; margin: auto;"">
                                    <img src=""images/D82.png"" style= ""width:200px""alt=""img"">
                                </div>
                            </div>","-101","","0","images/D82.png","","","","[""Non-random"",""Random""]"
"","","","","","html-slider-response","123","2378038","0.0-113.0","y1g1sgt39l","NaN","<div style=""width:500px;"">
                                <p style=""font-size:50px; font-weight:bold;""
                                ></p>
                                <div style=""width:240px; margin: auto;"">
                                    <img src=""images/D81.png"" style= ""width:200px""alt=""img"">
                                </div>
                            </div>","30","","0","images/D81.png","","","","[""Non-random"",""Random""]"
"","","","","","html-slider-response","124","2379922","0.0-114.0","y1g1sgt39l","NaN","<div style=""width:500px;"">
                                <p style=""font-size:50px; font-weight:bold;""
                                ></p>
                                <div style=""width:240px; margin: auto;"">
                                    <img src=""images/D64.png"" style= ""width:200px""alt=""img"">
                                </div>
                            </div>","-200","","0","images/D64.png","","","","[""Non-random"",""Random""]"
"","","","","","html-slider-response","125","2381772","0.0-115.0","y1g1sgt39l","NaN","<div style=""width:500px;"">
                                <p style=""font-size:50px; font-weight:bold;""
                                ></p>
                                <div style=""width:240px; margin: auto;"">
                                    <img src=""images/D20.png"" style= ""width:200px""alt=""img"">
                                </div>
                            </div>","-200","","0","images/D20.png","","","","[""Non-random"",""Random""]"
"","","","","","html-slider-response","126","2384956","0.0-116.0","y1g1sgt39l","NaN","<div style=""width:500px;"">
                                <p style=""font-size:50px; font-weight:bold;""
                                ></p>
                                <div style=""width:240px; margin: auto;"">
                                    <img src=""images/D68.png"" style= ""width:200px""alt=""img"">
                                </div>
                            </div>","-38","","0","images/D68.png","","","","[""Non-random"",""Random""]"
"","","","","","html-slider-response","127","2386842","0.0-117.0","y1g1sgt39l","NaN","<div style=""width:500px;"">
                                <p style=""font-size:50px; font-weight:bold;""
                                ></p>
                                <div style=""width:240px; margin: auto;"">
                                    <img src=""images/D78.png"" style= ""width:200px""alt=""img"">
                                </div>
                            </div>","-81","","0","images/D78.png","","","","[""Non-random"",""Random""]"
"","","","","","html-slider-response","128","2389141","0.0-118.0","y1g1sgt39l","NaN","<div style=""width:500px;"">
                                <p style=""font-size:50px; font-weight:bold;""
                                ></p>
                                <div style=""width:240px; margin: auto;"">
                                    <img src=""images/D49.png"" style= ""width:200px""alt=""img"">
                                </div>
                            </div>","-200","","0","images/D49.png","","","","[""Non-random"",""Random""]"
"","","","","","html-slider-response","129","2391674","0.0-119.0","y1g1sgt39l","NaN","<div style=""width:500px;"">
                                <p style=""font-size:50px; font-weight:bold;""
                                ></p>
                                <div style=""width:240px; margin: auto;"">
                                    <img src=""images/D24.png"" style= ""width:200px""alt=""img"">
                                </div>
                            </div>","90","","0","images/D24.png","","","","[""Non-random"",""Random""]"
"","","","","","html-slider-response","130","2397971","0.0-120.0","y1g1sgt39l","NaN","<div style=""width:500px;"">
                                <p style=""font-size:50px; font-weight:bold;""
                                ></p>
                                <div style=""width:240px; margin: auto;"">
                                    <img src=""images/D22.png"" style= ""width:200px""alt=""img"">
                                </div>
                            </div>","-68","","0","images/D22.png","","","","[""Non-random"",""Random""]"
"","","","","","html-slider-response","131","2400208","0.0-121.0","y1g1sgt39l","NaN","<div style=""width:500px;"">
                                <p style=""font-size:50px; font-weight:bold;""
                                ></p>
                                <div style=""width:240px; margin: auto;"">
                                    <img src=""images/D87.png"" style= ""width:200px""alt=""img"">
                                </div>
                            </div>","-136","","0","images/D87.png","","","","[""Non-random"",""Random""]"
"","","","","","html-slider-response","132","2401972","0.0-122.0","y1g1sgt39l","NaN","<div style=""width:500px;"">
                                <p style=""font-size:50px; font-weight:bold;""
                                ></p>
                                <div style=""width:240px; margin: auto;"">
                                    <img src=""images/D17.png"" style= ""width:200px""alt=""img"">
                                </div>
                            </div>","-200","","0","images/D17.png","","","","[""Non-random"",""Random""]"
"","","","","","html-slider-response","133","2403590","0.0-123.0","y1g1sgt39l","NaN","<div style=""width:500px;"">
                                <p style=""font-size:50px; font-weight:bold;""
                                ></p>
                                <div style=""width:240px; margin: auto;"">
                                    <img src=""images/D53.png"" style= ""width:200px""alt=""img"">
                                </div>
                            </div>","-200","","0","images/D53.png","","","","[""Non-random"",""Random""]"
"","","","","","html-slider-response","134","2405321","0.0-124.0","y1g1sgt39l","NaN","<div style=""width:500px;"">
                                <p style=""font-size:50px; font-weight:bold;""
                                ></p>
                                <div style=""width:240px; margin: auto;"">
                                    <img src=""images/D55.png"" style= ""width:200px""alt=""img"">
                                </div>
                            </div>","-200","","0","images/D55.png","","","","[""Non-random"",""Random""]"
"","","","","","html-slider-response","135","2407806","0.0-125.0","y1g1sgt39l","NaN","<div style=""width:500px;"">
                                <p style=""font-size:50px; font-weight:bold;""
                                ></p>
                                <div style=""width:240px; margin: auto;"">
                                    <img src=""images/D96.png"" style= ""width:200px""alt=""img"">
                                </div>
                            </div>","-200","","0","images/D96.png","","","","[""Non-random"",""Random""]"
"","","","","","html-slider-response","136","2410090","0.0-126.0","y1g1sgt39l","NaN","<div style=""width:500px;"">
                                <p style=""font-size:50px; font-weight:bold;""
                                ></p>
                                <div style=""width:240px; margin: auto;"">
                                    <img src=""images/D37.png"" style= ""width:200px""alt=""img"">
                                </div>
                            </div>","200","","0","images/D37.png","","","","[""Non-random"",""Random""]"
"","","","","","html-slider-response","137","2412042","0.0-127.0","y1g1sgt39l","NaN","<div style=""width:500px;"">
                                <p style=""font-size:50px; font-weight:bold;""
                                ></p>
                                <div style=""width:240px; margin: auto;"">
                                    <img src=""images/D74.png"" style= ""width:200px""alt=""img"">
                                </div>
                            </div>","171","","0","images/D74.png","","","","[""Non-random"",""Random""]"
"","","","","","html-slider-response","138","2413626","0.0-128.0","y1g1sgt39l","NaN","<div style=""width:500px;"">
                                <p style=""font-size:50px; font-weight:bold;""
                                ></p>
                                <div style=""width:240px; margin: auto;"">
                                    <img src=""images/D11.png"" style= ""width:200px""alt=""img"">
                                </div>
                            </div>","-171","","0","images/D11.png","","","","[""Non-random"",""Random""]"
"","","","","","html-slider-response","139","2415356","0.0-129.0","y1g1sgt39l","NaN","<div style=""width:500px;"">
                                <p style=""font-size:50px; font-weight:bold;""
                                ></p>
                                <div style=""width:240px; margin: auto;"">
                                    <img src=""images/D83.png"" style= ""width:200px""alt=""img"">
                                </div>
                            </div>","-200","","0","images/D83.png","","","","[""Non-random"",""Random""]"
"","","","","","html-slider-response","140","2417022","0.0-130.0","y1g1sgt39l","NaN","<div style=""width:500px;"">
                                <p style=""font-size:50px; font-weight:bold;""
                                ></p>
                                <div style=""width:240px; margin: auto;"">
                                    <img src=""images/D4.png"" style= ""width:200px""alt=""img"">
                                </div>
                            </div>","134","","0","images/D4.png","","","","[""Non-random"",""Random""]"
"","","","","","html-slider-response","141","2418540","0.0-131.0","y1g1sgt39l","NaN","<div style=""width:500px;"">
                                <p style=""font-size:50px; font-weight:bold;""
                                ></p>
                                <div style=""width:240px; margin: auto;"">
                                    <img src=""images/D8.png"" style= ""width:200px""alt=""img"">
                                </div>
                            </div>","-160","","0","images/D8.png","","","","[""Non-random"",""Random""]"
"","","","","","html-slider-response","142","2420524","0.0-132.0","y1g1sgt39l","NaN","<div style=""width:500px;"">
                                <p style=""font-size:50px; font-weight:bold;""
                                ></p>
                                <div style=""width:240px; margin: auto;"">
                                    <img src=""images/D94.png"" style= ""width:200px""alt=""img"">
                                </div>
                            </div>","-179","","0","images/D94.png","","","","[""Non-random"",""Random""]"
"","","","","","html-slider-response","143","2423825","0.0-133.0","y1g1sgt39l","NaN","<div style=""width:500px;"">
                                <p style=""font-size:50px; font-weight:bold;""
                                ></p>
                                <div style=""width:240px; margin: auto;"">
                                    <img src=""images/D36.png"" style= ""width:200px""alt=""img"">
                                </div>
                            </div>","-94","","0","images/D36.png","","","","[""Non-random"",""Random""]"
"","","","","","html-slider-response","144","2427358","0.0-134.0","y1g1sgt39l","NaN","<div style=""width:500px;"">
                                <p style=""font-size:50px; font-weight:bold;""
                                ></p>
                                <div style=""width:240px; margin: auto;"">
                                    <img src=""images/D66.png"" style= ""width:200px""alt=""img"">
                                </div>
                            </div>","119","","0","images/D66.png","","","","[""Non-random"",""Random""]"
"","","","","","html-slider-response","145","2429006","0.0-135.0","y1g1sgt39l","NaN","<div style=""width:500px;"">
                                <p style=""font-size:50px; font-weight:bold;""
                                ></p>
                                <div style=""width:240px; margin: auto;"">
                                    <img src=""images/D57.png"" style= ""width:200px""alt=""img"">
                                </div>
                            </div>","164","","0","images/D57.png","","","","[""Non-random"",""Random""]"
"","","","","","html-slider-response","146","2430856","0.0-136.0","y1g1sgt39l","NaN","<div style=""width:500px;"">
                                <p style=""font-size:50px; font-weight:bold;""
                                ></p>
                                <div style=""width:240px; margin: auto;"">
                                    <img src=""images/D85.png"" style= ""width:200px""alt=""img"">
                                </div>
                            </div>","-154","","0","images/D85.png","","","","[""Non-random"",""Random""]"
"","","","","","html-slider-response","147","2433389","0.0-137.0","y1g1sgt39l","NaN","<div style=""width:500px;"">
                                <p style=""font-size:50px; font-weight:bold;""
                                ></p>
                                <div style=""width:240px; margin: auto;"">
                                    <img src=""images/D34.png"" style= ""width:200px""alt=""img"">
                                </div>
                            </div>","-200","","0","images/D34.png","","","","[""Non-random"",""Random""]"
"","","","","","html-slider-response","148","2435406","0.0-138.0","y1g1sgt39l","NaN","<div style=""width:500px;"">
                                <p style=""font-size:50px; font-weight:bold;""
                                ></p>
                                <div style=""width:240px; margin: auto;"">
                                    <img src=""images/D16.png"" style= ""width:200px""alt=""img"">
                                </div>
                            </div>","-106","","0","images/D16.png","","","","[""Non-random"",""Random""]"
"","","","","","html-slider-response","149","2437375","0.0-139.0","y1g1sgt39l","NaN","<div style=""width:500px;"">
                                <p style=""font-size:50px; font-weight:bold;""
                                ></p>
                                <div style=""width:240px; margin: auto;"">
                                    <img src=""images/D14.png"" style= ""width:200px""alt=""img"">
                                </div>
                            </div>","-166","","0","images/D14.png","","","","[""Non-random"",""Random""]"
"","","","","","html-button-response","150","2440846","0.0-140.0","y1g1sgt39l","2968","You have completed the second block of trials out of six. Please click 'Continue' when you are ready proceed.","0","","","","","","",""
"","","","","","html-button-response","151","2441946","0.0-141.0","y1g1sgt39l","1098","In the following trials, you will be asked to rate textures on the scale <b>Stripey</b> versus <b>Blobby</b>. Please click 'Continue' when you are ready proceed.","0","","","","","","",""
"","","","","","html-slider-response","152","2444839","0.0-142.0","y1g1sgt39l","NaN","<div style=""width:500px;"">
                                <p style=""font-size:50px; font-weight:bold;""
                                ></p>
                                <div style=""width:240px; margin: auto;"">
                                    <img src=""images/D104.png"" style= ""width:200px""alt=""img"">
                                </div>
                            </div>","-69","","0","images/D104.png","","","","[""Stripey"",""Blobby""]"
"","","","","","html-slider-response","153","2446774","0.0-143.0","y1g1sgt39l","NaN","<div style=""width:500px;"">
                                <p style=""font-size:50px; font-weight:bold;""
                                ></p>
                                <div style=""width:240px; margin: auto;"">
                                    <img src=""images/D80.png"" style= ""width:200px""alt=""img"">
                                </div>
                            </div>","-107","","0","images/D80.png","","","","[""Stripey"",""Blobby""]"
"","","","","","html-slider-response","154","2449358","0.0-144.0","y1g1sgt39l","NaN","<div style=""width:500px;"">
                                <p style=""font-size:50px; font-weight:bold;""
                                ></p>
                                <div style=""width:240px; margin: auto;"">
                                    <img src=""images/D18.png"" style= ""width:200px""alt=""img"">
                                </div>
                            </div>","-107","","0","images/D18.png","","","","[""Stripey"",""Blobby""]"
"","","","","","html-slider-response","155","2451440","0.0-145.0","y1g1sgt39l","NaN","<div style=""width:500px;"">
                                <p style=""font-size:50px; font-weight:bold;""
                                ></p>
                                <div style=""width:240px; margin: auto;"">
                                    <img src=""images/D105.png"" style= ""width:200px""alt=""img"">
                                </div>
                            </div>","-114","","0","images/D105.png","","","","[""Stripey"",""Blobby""]"
"","","","","","html-slider-response","156","2453275","0.0-146.0","y1g1sgt39l","NaN","<div style=""width:500px;"">
                                <p style=""font-size:50px; font-weight:bold;""
                                ></p>
                                <div style=""width:240px; margin: auto;"">
                                    <img src=""images/D79.png"" style= ""width:200px""alt=""img"">
                                </div>
                            </div>","-89","","0","images/D79.png","","","","[""Stripey"",""Blobby""]"
"","","","","","html-slider-response","157","2454874","0.0-147.0","y1g1sgt39l","NaN","<div style=""width:500px;"">
                                <p style=""font-size:50px; font-weight:bold;""
                                ></p>
                                <div style=""width:240px; margin: auto;"">
                                    <img src=""images/D76.png"" style= ""width:200px""alt=""img"">
                                </div>
                            </div>","-166","","0","images/D76.png","","","","[""Stripey"",""Blobby""]"
"","","","","","html-slider-response","158","2456990","0.0-148.0","y1g1sgt39l","NaN","<div style=""width:500px;"">
                                <p style=""font-size:50px; font-weight:bold;""
                                ></p>
                                <div style=""width:240px; margin: auto;"">
                                    <img src=""images/D102.png"" style= ""width:200px""alt=""img"">
                                </div>
                            </div>","-150","","0","images/D102.png","","","","[""Stripey"",""Blobby""]"
"","","","","","html-slider-response","159","2459657","0.0-149.0","y1g1sgt39l","NaN","<div style=""width:500px;"">
                                <p style=""font-size:50px; font-weight:bold;""
                                ></p>
                                <div style=""width:240px; margin: auto;"">
                                    <img src=""images/D19.png"" style= ""width:200px""alt=""img"">
                                </div>
                            </div>","-143","","0","images/D19.png","","","","[""Stripey"",""Blobby""]"
"","","","","","html-slider-response","160","2461556","0.0-150.0","y1g1sgt39l","NaN","<div style=""width:500px;"">
                                <p style=""font-size:50px; font-weight:bold;""
                                ></p>
                                <div style=""width:240px; margin: auto;"">
                                    <img src=""images/D56.png"" style= ""width:200px""alt=""img"">
                                </div>
                            </div>","-146","","0","images/D56.png","","","","[""Stripey"",""Blobby""]"
"","","","","","html-slider-response","161","2463659","0.0-151.0","y1g1sgt39l","NaN","<div style=""width:500px;"">
                                <p style=""font-size:50px; font-weight:bold;""
                                ></p>
                                <div style=""width:240px; margin: auto;"">
                                    <img src=""images/D84.png"" style= ""width:200px""alt=""img"">
                                </div>
                            </div>","-192","","0","images/D84.png","","","","[""Stripey"",""Blobby""]"
"","","","","","html-slider-response","162","2466275","0.0-152.0","y1g1sgt39l","NaN","<div style=""width:500px;"">
                                <p style=""font-size:50px; font-weight:bold;""
                                ></p>
                                <div style=""width:240px; margin: auto;"">
                                    <img src=""images/D6.png"" style= ""width:200px""alt=""img"">
                                </div>
                            </div>","-200","","0","images/D6.png","","","","[""Stripey"",""Blobby""]"
"","","","","","html-slider-response","163","2469791","0.0-153.0","y1g1sgt39l","NaN","<div style=""width:500px;"">
                                <p style=""font-size:50px; font-weight:bold;""
                                ></p>
                                <div style=""width:240px; margin: auto;"">
                                    <img src=""images/D9.png"" style= ""width:200px""alt=""img"">
                                </div>
                            </div>","109","","0","images/D9.png","","","","[""Stripey"",""Blobby""]"
"","","","","","html-slider-response","164","2472160","0.0-154.0","y1g1sgt39l","NaN","<div style=""width:500px;"">
                                <p style=""font-size:50px; font-weight:bold;""
                                ></p>
                                <div style=""width:240px; margin: auto;"">
                                    <img src=""images/D52.png"" style= ""width:200px""alt=""img"">
                                </div>
                            </div>","-182","","0","images/D52.png","","","","[""Stripey"",""Blobby""]"
"","","","","","html-slider-response","165","2475325","0.0-155.0","y1g1sgt39l","NaN","<div style=""width:500px;"">
                                <p style=""font-size:50px; font-weight:bold;""
                                ></p>
                                <div style=""width:240px; margin: auto;"">
                                    <img src=""images/D35.png"" style= ""width:200px""alt=""img"">
                                </div>
                            </div>","-174","","0","images/D35.png","","","","[""Stripey"",""Blobby""]"
"","","","","","html-slider-response","166","2477291","0.0-156.0","y1g1sgt39l","NaN","<div style=""width:500px;"">
                                <p style=""font-size:50px; font-weight:bold;""
                                ></p>
                                <div style=""width:240px; margin: auto;"">
                                    <img src=""images/D46.png"" style= ""width:200px""alt=""img"">
                                </div>
                            </div>","-170","","0","images/D46.png","","","","[""Stripey"",""Blobby""]"
"","","","","","html-slider-response","167","2478991","0.0-157.0","y1g1sgt39l","NaN","<div style=""width:500px;"">
                                <p style=""font-size:50px; font-weight:bold;""
                                ></p>
                                <div style=""width:240px; margin: auto;"">
                                    <img src=""images/D47.png"" style= ""width:200px""alt=""img"">
                                </div>
                            </div>","-170","","0","images/D47.png","","","","[""Stripey"",""Blobby""]"
"","","","","","html-slider-response","168","2481010","0.0-158.0","y1g1sgt39l","NaN","<div style=""width:500px;"">
                                <p style=""font-size:50px; font-weight:bold;""
                                ></p>
                                <div style=""width:240px; margin: auto;"">
                                    <img src=""images/D92.png"" style= ""width:200px""alt=""img"">
                                </div>
                            </div>","143","","0","images/D92.png","","","","[""Stripey"",""Blobby""]"
"","","","","","html-slider-response","169","2482610","0.0-159.0","y1g1sgt39l","NaN","<div style=""width:500px;"">
                                <p style=""font-size:50px; font-weight:bold;""
                                ></p>
                                <div style=""width:240px; margin: auto;"">
                                    <img src=""images/D26.png"" style= ""width:200px""alt=""img"">
                                </div>
                            </div>","-200","","0","images/D26.png","","","","[""Stripey"",""Blobby""]"
"","","","","","html-slider-response","170","2484509","0.0-160.0","y1g1sgt39l","NaN","<div style=""width:500px;"">
                                <p style=""font-size:50px; font-weight:bold;""
                                ></p>
                                <div style=""width:240px; margin: auto;"">
                                    <img src=""images/D32.png"" style= ""width:200px""alt=""img"">
                                </div>
                            </div>","106","","0","images/D32.png","","","","[""Stripey"",""Blobby""]"
"","","","","","html-slider-response","171","2485975","0.0-161.0","y1g1sgt39l","NaN","<div style=""width:500px;"">
                                <p style=""font-size:50px; font-weight:bold;""
                                ></p>
                                <div style=""width:240px; margin: auto;"">
                                    <img src=""images/D51.png"" style= ""width:200px""alt=""img"">
                                </div>
                            </div>","-200","","0","images/D51.png","","","","[""Stripey"",""Blobby""]"
"","","","","","html-slider-response","172","2487391","0.0-162.0","y1g1sgt39l","NaN","<div style=""width:500px;"">
                                <p style=""font-size:50px; font-weight:bold;""
                                ></p>
                                <div style=""width:240px; margin: auto;"">
                                    <img src=""images/D1.png"" style= ""width:200px""alt=""img"">
                                </div>
                            </div>","-200","","0","images/D1.png","","","","[""Stripey"",""Blobby""]"
"","","","","","html-slider-response","173","2490260","0.0-163.0","y1g1sgt39l","NaN","<div style=""width:500px;"">
                                <p style=""font-size:50px; font-weight:bold;""
                                ></p>
                                <div style=""width:240px; margin: auto;"">
                                    <img src=""images/D21.png"" style= ""width:200px""alt=""img"">
                                </div>
                            </div>","-200","","0","images/D21.png","","","","[""Stripey"",""Blobby""]"
"","","","","","html-slider-response","174","2492674","0.0-164.0","y1g1sgt39l","NaN","<div style=""width:500px;"">
                                <p style=""font-size:50px; font-weight:bold;""
                                ></p>
                                <div style=""width:240px; margin: auto;"">
                                    <img src=""images/D106.png"" style= ""width:200px""alt=""img"">
                                </div>
                            </div>","-178","","0","images/D106.png","","","","[""Stripey"",""Blobby""]"
"","","","","","html-slider-response","175","2495991","0.0-165.0","y1g1sgt39l","NaN","<div style=""width:500px;"">
                                <p style=""font-size:50px; font-weight:bold;""
                                ></p>
                                <div style=""width:240px; margin: auto;"">
                                    <img src=""images/D48.png"" style= ""width:200px""alt=""img"">
                                </div>
                            </div>","150","","0","images/D48.png","","","","[""Stripey"",""Blobby""]"
"","","","","","html-slider-response","176","2498825","0.0-166.0","y1g1sgt39l","NaN","<div style=""width:500px;"">
                                <p style=""font-size:50px; font-weight:bold;""
                                ></p>
                                <div style=""width:240px; margin: auto;"">
                                    <img src=""images/D111.png"" style= ""width:200px""alt=""img"">
                                </div>
                            </div>","200","","0","images/D111.png","","","","[""Stripey"",""Blobby""]"
"","","","","","html-slider-response","177","2501543","0.0-167.0","y1g1sgt39l","NaN","<div style=""width:500px;"">
                                <p style=""font-size:50px; font-weight:bold;""
                                ></p>
                                <div style=""width:240px; margin: auto;"">
                                    <img src=""images/D3.png"" style= ""width:200px""alt=""img"">
                                </div>
                            </div>","-62","","0","images/D3.png","","","","[""Stripey"",""Blobby""]"
"","","","","","html-slider-response","178","2504024","0.0-168.0","y1g1sgt39l","NaN","<div style=""width:500px;"">
                                <p style=""font-size:50px; font-weight:bold;""
                                ></p>
                                <div style=""width:240px; margin: auto;"">
                                    <img src=""images/D29.png"" style= ""width:200px""alt=""img"">
                                </div>
                            </div>","134","","0","images/D29.png","","","","[""Stripey"",""Blobby""]"
"","","","","","html-slider-response","179","2506042","0.0-169.0","y1g1sgt39l","NaN","<div style=""width:500px;"">
                                <p style=""font-size:50px; font-weight:bold;""
                                ></p>
                                <div style=""width:240px; margin: auto;"">
                                    <img src=""images/D101.png"" style= ""width:200px""alt=""img"">
                                </div>
                            </div>","-154","","0","images/D101.png","","","","[""Stripey"",""Blobby""]"
"","","","","","html-slider-response","180","2508108","0.0-170.0","y1g1sgt39l","NaN","<div style=""width:500px;"">
                                <p style=""font-size:50px; font-weight:bold;""
                                ></p>
                                <div style=""width:240px; margin: auto;"">
                                    <img src=""images/D103.png"" style= ""width:200px""alt=""img"">
                                </div>
                            </div>","-55","","0","images/D103.png","","","","[""Stripey"",""Blobby""]"
"","","","","","html-slider-response","181","2509876","0.0-171.0","y1g1sgt39l","NaN","<div style=""width:500px;"">
                                <p style=""font-size:50px; font-weight:bold;""
                                ></p>
                                <div style=""width:240px; margin: auto;"">
                                    <img src=""images/D65.png"" style= ""width:200px""alt=""img"">
                                </div>
                            </div>","-181","","0","images/D65.png","","","","[""Stripey"",""Blobby""]"
"","","","","","html-slider-response","182","2513743","0.0-172.0","y1g1sgt39l","NaN","<div style=""width:500px;"">
                                <p style=""font-size:50px; font-weight:bold;""
                                ></p>
                                <div style=""width:240px; margin: auto;"">
                                    <img src=""images/D25.png"" style= ""width:200px""alt=""img"">
                                </div>
                            </div>","-191","","0","images/D25.png","","","","[""Stripey"",""Blobby""]"
"","","","","","html-slider-response","183","2515908","0.0-173.0","y1g1sgt39l","NaN","<div style=""width:500px;"">
                                <p style=""font-size:50px; font-weight:bold;""
                                ></p>
                                <div style=""width:240px; margin: auto;"">
                                    <img src=""images/D75.png"" style= ""width:200px""alt=""img"">
                                </div>
                            </div>","137","","0","images/D75.png","","","","[""Stripey"",""Blobby""]"
"","","","","","html-slider-response","184","2518577","0.0-174.0","y1g1sgt39l","NaN","<div style=""width:500px;"">
                                <p style=""font-size:50px; font-weight:bold;""
                                ></p>
                                <div style=""width:240px; margin: auto;"">
                                    <img src=""images/D95.png"" style= ""width:200px""alt=""img"">
                                </div>
                            </div>","-198","","0","images/D95.png","","","","[""Stripey"",""Blobby""]"
"","","","","","html-slider-response","185","2520842","0.0-175.0","y1g1sgt39l","NaN","<div style=""width:500px;"">
                                <p style=""font-size:50px; font-weight:bold;""
                                ></p>
                                <div style=""width:240px; margin: auto;"">
                                    <img src=""images/D77.png"" style= ""width:200px""alt=""img"">
                                </div>
                            </div>","-196","","0","images/D77.png","","","","[""Stripey"",""Blobby""]"
"","","","","","html-slider-response","186","2522809","0.0-176.0","y1g1sgt39l","NaN","<div style=""width:500px;"">
                                <p style=""font-size:50px; font-weight:bold;""
                                ></p>
                                <div style=""width:240px; margin: auto;"">
                                    <img src=""images/D82.png"" style= ""width:200px""alt=""img"">
                                </div>
                            </div>","-194","","0","images/D82.png","","","","[""Stripey"",""Blobby""]"
"","","","","","html-slider-response","187","2524959","0.0-177.0","y1g1sgt39l","NaN","<div style=""width:500px;"">
                                <p style=""font-size:50px; font-weight:bold;""
                                ></p>
                                <div style=""width:240px; margin: auto;"">
                                    <img src=""images/D81.png"" style= ""width:200px""alt=""img"">
                                </div>
                            </div>","-88","","0","images/D81.png","","","","[""Stripey"",""Blobby""]"
"","","","","","html-slider-response","188","2526643","0.0-178.0","y1g1sgt39l","NaN","<div style=""width:500px;"">
                                <p style=""font-size:50px; font-weight:bold;""
                                ></p>
                                <div style=""width:240px; margin: auto;"">
                                    <img src=""images/D64.png"" style= ""width:200px""alt=""img"">
                                </div>
                            </div>","-194","","0","images/D64.png","","","","[""Stripey"",""Blobby""]"
