"success","timeout","failed_images","failed_audio","failed_video","trial_type","trial_index","time_elapsed","internal_node_id","subject_id","rt","stimulus","response","question_order","slider_start","image_path","practiceTrial","practiceTrialNum","correct","slider_labels"
"true","false","[]","[]","[]","preload","0","383","0.0-0.0","y8ww4gm1t9","","","","","","","","","",""
"","","","","","html-button-response","1","1889","0.0-1.0","y8ww4gm1t9","1503","<div style='text-align:center; font-size:20px; line-height:25px; width: 1200px;'>
                Welcome to our experiment! <br>
                <br>At the bottom of this screen, you will see a button that says 'Begin Experiment.
                <br>Please only click that button when you are ready to complete the 25 minute experiment in one sitting. <br>
                <br> Once you click that button, it will not be possible to restart the experiment. <br><br>","0","","","","","","",""
"true","","","","","fullscreen","2","4623","0.0-2.0","y8ww4gm1t9","1730","","","","","","","","",""
"","","","","","survey-multi-select","3","17291","0.0-3.0","y8ww4gm1t9","12663","","{""Consent"":[""<strong>I consent</strong>""]}","[0]","","","","","",""
"","","","","","html-button-response","4","98477","0.0-4.0","y8ww4gm1t9","81180","Welcome! <p> This experiment involves two parts: demographic information, followed by the experimental task.<p> It will take about 25 minutes to complete both parts.","0","","","","","","",""
"","","","","","survey-text","5","103938","0.0-5.0","y8ww4gm1t9","5458","","{""Age"":""20"",""Gender"":""male"",""Race/ethnicity"":""white""}","","","","","","",""
"","","","","","html-slider-response","6","116308","0.0-6.0","y8ww4gm1t9","12366","
                <div style='text-align:center; height: auto; margin-left=-100px; margin-bottom: -20px; font-size:20px; line-height:5px; width: 1200px;'>
                    <br>During this experiment, you will see a series of textures, one at a time, like the ones below: 
                </div>
                    <br>
                    <br>
                    <img src=""anchoring_visual_textures.png"" alt=""img"" style=""max-width:1200px; margin-left: -10px;"">
                </div>
                <div style=""clear: both;""></div>
                </div>
                    <div style='text-align:center; margin-left=-100px; font-size:20px; line-height:20px; width: 1200px; margin-top: -50px;'>
                    
                    <br> For each texture, you will be asked to rate where you think it falls on each of the response scales with the following endpoints:
                    </div>
                            <div style=""text-align: center; width: 1400px; "">
                                <p style=""font-size:20px; line-height:5px; ""><b>Stripey</b> versus <b>Blobby</b></p>
                                <p style=""font-size:20px; line-height:5px; ""><b>Rectangular</b> versus <b>Rounded</b></p>
                                <p style=""font-size:20px;line-height:5px;""><b>Fine</b> versus <b>Coarse</b></p>
                                <p style=""font-size:20px;line-height:5px; ""><b>Smooth</b> versus <b>Rough</b></p>
                                <p style=""font-size:20px;line-height:5px; ""><b>Non-Random</b> versus <b>Random</b></p>
                                <p style=""font-size:20px;line-height:5px;""><b>Soft</b> versus <b>Hard</b></p>
                            </div>
                            <div style='text-align:center; font-size:20px; line-height:20px; width: 1400px;'>
                    
                    Each trial will include one texture and one response scale. You will be asked to make your rating by sliding the cursor along a slider response scale like the one below.
                    <br><br> Before beginning, please look at the textures and scales. For each scale, think about the texture you associate most with the left endpoint. When you see that texture for that response scale, please click near the left of the scale.
                    <br><br> Now, please think about the texture you associate most with the right endpoint of each scale. When you see that texture for that response scale, please click near the right of the scale. 
                    <br><br> If you think a texture is not strongly associated with either endpoint of the scale, please click near the midpoint of the scale. Please use the full range of the scale. 
                    <br><br> You will be asked to rate each texture for a given scale before moving on to the next scale.
                    <br><br> Please press the 'Continue' button for instructions on how to use the slider.                     <br><br>
                ","-2","","0","visual_textures_anchoring.png","true","","",""
"","","","","","html-button-response","7","122325","0.0-7.0","y8ww4gm1t9","6015","<div style=""width:1200px; margin-top:-150px;""><p style=""text-align:center; font-size:24px;"">To move the slider, click and drag your cursor to the location of the scale where you would like to make your rating and then let go. <br><br> When you let go of the slider, your response will be recorded and the next trial will begin. <br><br><br>
                We are interested in your initial impressions of each texture and scale, so please go with your first intuition. <br><br>
                Before you begin the experiment, there will be four training trials for you to practice using the scale. <br><br><br><br></div>
                <div style=""width:1200px;""><p style=""text-align:center; font-size:20px;"">When you are ready to start the training trials, please click ""Continue"".</p></div>","0","","","","","","",""
"","","","","","html-slider-response","8","127252","0.0-8.0-0.0","y8ww4gm1t9","NaN","<div style=""width:500px;"">
                                <p style=""font-size:25px;"">Please move the slider all the way to the <br> right endpoint of the scale</p>

                                </div>
                            </div>","200","","0","","true","0","true",""
"","","","","","html-button-response","9","128757","0.0-8.0-1.0","y8ww4gm1t9","1001","<p align='center'><b>Good job!</b> Click on 'Continue' to proceed.</p>","0","","","","","","",""
"","","","","","html-slider-response","10","130720","0.0-9.0-0.0","y8ww4gm1t9","NaN","<div style=""width:500px;"">
                                <p style=""font-size:25px;"">Please move the slider all the way to the <br> left endpoint of the scale</p>

                                </div>
                            </div>","-200","","0","","true","1","true",""
"","","","","","html-button-response","11","133542","0.0-9.0-1.0","y8ww4gm1t9","2317","<p align='center'><b>Good job!</b> Click on 'Continue' to proceed.</p>","0","","","","","","",""
"","","","","","html-slider-response","12","139384","0.0-10.0-0.0","y8ww4gm1t9","NaN","<div style=""width:500px;"">
                                <p style=""font-size:25px;"">Please move the slider halfway between the center and right endpoint of the scale</p>

                                </div>
                            </div>","106","","0","","true","2","true",""
"","","","","","html-button-response","13","141040","0.0-10.0-1.0","y8ww4gm1t9","1152","<p align='center'><b>Good job!</b> Click on 'Continue' to proceed.</p>","0","","","","","","",""
"","","","","","html-slider-response","14","144050","0.0-11.0-0.0","y8ww4gm1t9","NaN","<div style=""width:500px;"">
                                <p style=""font-size:25px;"">Please move the slider halfway between the center and left endpoint of the scale</p>

                                </div>
                            </div>","-112","","0","","true","3","false",""
"","","","","","html-button-response","15","176241","0.0-11.0-1.0","y8ww4gm1t9","31687","<p align='center'><b>Not quite!</b> The slider was not placed near the instructed locattion. Click on 'Continue' to try again. </p>","0","","","","","","",""
"","","","","","html-slider-response","16","181535","0.0-11.1-0.1","y8ww4gm1t9","NaN","<div style=""width:500px;"">
                                <p style=""font-size:25px;"">Please move the slider halfway between the center and left endpoint of the scale</p>

                                </div>
                            </div>","-107","","0","","true","3","true",""
"","","","","","html-button-response","17","182975","0.0-11.1-1.1","y8ww4gm1t9","935","<p align='center'><b>Good job!</b> Click on 'Continue' to proceed.</p>","0","","","","","","",""
"","","","","","html-button-response","18","186358","0.0-12.0","y8ww4gm1t9","3381","<div style=""width:800px; margin-top:-300px;""><p style=""text-align:center; font-size:22px; line-height:25px;""""> Great job! You've completed the practice trials.</div>
                     <div style=""width:800px; margin-top:-20px;""><p style=""text-align:center""><br><br> In the following trials, you will be asked to rate textures on each scale one-by-one. <br> You will be given opportunities to take breaks when you have completed each block of trials. There are six total blocks of trials. <br><br> Please click continue to begin the main task.<br><br><br> </div>","0","","","","","","",""
"","","","","","html-button-response","19","190241","0.0-13.0","y8ww4gm1t9","3882","In the following trials, you will be asked to rate textures on the scale <b>Fine</b> versus <b>Coarse</b>. Please click 'Continue' when you are ready proceed.","0","","","","","","",""
"","","","","","html-slider-response","20","193768","0.0-14.0","y8ww4gm1t9","NaN","<div style=""width:500px;"">
                                <p style=""font-size:50px; font-weight:bold;""
                                ></p>
                                <div style=""width:240px; margin: auto;"">
                                    <img src=""images/D81.png"" style= ""width:200px""alt=""img"">
                                </div>
                            </div>","132","","0","images/D81.png","","","","[""Fine"",""Coarse""]"
"","","","","","html-slider-response","21","196821","0.0-15.0","y8ww4gm1t9","NaN","<div style=""width:500px;"">
                                <p style=""font-size:50px; font-weight:bold;""
                                ></p>
                                <div style=""width:240px; margin: auto;"">
                                    <img src=""images/D17.png"" style= ""width:200px""alt=""img"">
                                </div>
                            </div>","126","","0","images/D17.png","","","","[""Fine"",""Coarse""]"
"","","","","","html-slider-response","22","199318","0.0-16.0","y8ww4gm1t9","NaN","<div style=""width:500px;"">
                                <p style=""font-size:50px; font-weight:bold;""
                                ></p>
                                <div style=""width:240px; margin: auto;"">
                                    <img src=""images/D101.png"" style= ""width:200px""alt=""img"">
                                </div>
                            </div>","-134","","0","images/D101.png","","","","[""Fine"",""Coarse""]"
"","","","","","html-slider-response","23","202135","0.0-17.0","y8ww4gm1t9","NaN","<div style=""width:500px;"">
                                <p style=""font-size:50px; font-weight:bold;""
                                ></p>
                                <div style=""width:240px; margin: auto;"">
                                    <img src=""images/D16.png"" style= ""width:200px""alt=""img"">
                                </div>
                            </div>","86","","0","images/D16.png","","","","[""Fine"",""Coarse""]"
"","","","","","html-slider-response","24","206067","0.0-18.0","y8ww4gm1t9","NaN","<div style=""width:500px;"">
                                <p style=""font-size:50px; font-weight:bold;""
                                ></p>
                                <div style=""width:240px; margin: auto;"">
                                    <img src=""images/D94.png"" style= ""width:200px""alt=""img"">
                                </div>
                            </div>","86","","0","images/D94.png","","","","[""Fine"",""Coarse""]"
"","","","","","html-slider-response","25","208653","0.0-19.0","y8ww4gm1t9","NaN","<div style=""width:500px;"">
                                <p style=""font-size:50px; font-weight:bold;""
                                ></p>
                                <div style=""width:240px; margin: auto;"">
                                    <img src=""images/D76.png"" style= ""width:200px""alt=""img"">
                                </div>
                            </div>","-129","","0","images/D76.png","","","","[""Fine"",""Coarse""]"
"","","","","","html-slider-response","26","211570","0.0-20.0","y8ww4gm1t9","NaN","<div style=""width:500px;"">
                                <p style=""font-size:50px; font-weight:bold;""
                                ></p>
                                <div style=""width:240px; margin: auto;"">
                                    <img src=""images/D66.png"" style= ""width:200px""alt=""img"">
                                </div>
                            </div>","173","","0","images/D66.png","","","","[""Fine"",""Coarse""]"
"","","","","","html-slider-response","27","214785","0.0-21.0","y8ww4gm1t9","NaN","<div style=""width:500px;"">
                                <p style=""font-size:50px; font-weight:bold;""
                                ></p>
                                <div style=""width:240px; margin: auto;"">
                                    <img src=""images/D29.png"" style= ""width:200px""alt=""img"">
                                </div>
                            </div>","192","","0","images/D29.png","","","","[""Fine"",""Coarse""]"
"","","","","","html-slider-response","28","218070","0.0-22.0","y8ww4gm1t9","NaN","<div style=""width:500px;"">
                                <p style=""font-size:50px; font-weight:bold;""
                                ></p>
                                <div style=""width:240px; margin: auto;"">
                                    <img src=""images/D51.png"" style= ""width:200px""alt=""img"">
                                </div>
                            </div>","-79","","0","images/D51.png","","","","[""Fine"",""Coarse""]"
"","","","","","html-slider-response","29","220651","0.0-23.0","y8ww4gm1t9","NaN","<div style=""width:500px;"">
                                <p style=""font-size:50px; font-weight:bold;""
                                ></p>
                                <div style=""width:240px; margin: auto;"">
                                    <img src=""images/D11.png"" style= ""width:200px""alt=""img"">
                                </div>
                            </div>","39","","0","images/D11.png","","","","[""Fine"",""Coarse""]"
"","","","","","html-slider-response","30","223487","0.0-24.0","y8ww4gm1t9","NaN","<div style=""width:500px;"">
                                <p style=""font-size:50px; font-weight:bold;""
                                ></p>
                                <div style=""width:240px; margin: auto;"">
                                    <img src=""images/D65.png"" style= ""width:200px""alt=""img"">
                                </div>
                            </div>","86","","0","images/D65.png","","","","[""Fine"",""Coarse""]"
"","","","","","html-slider-response","31","225836","0.0-25.0","y8ww4gm1t9","NaN","<div style=""width:500px;"">
                                <p style=""font-size:50px; font-weight:bold;""
                                ></p>
                                <div style=""width:240px; margin: auto;"">
                                    <img src=""images/D87.png"" style= ""width:200px""alt=""img"">
                                </div>
                            </div>","174","","0","images/D87.png","","","","[""Fine"",""Coarse""]"
"","","","","","html-slider-response","32","228419","0.0-26.0","y8ww4gm1t9","NaN","<div style=""width:500px;"">
                                <p style=""font-size:50px; font-weight:bold;""
                                ></p>
                                <div style=""width:240px; margin: auto;"">
                                    <img src=""images/D37.png"" style= ""width:200px""alt=""img"">
                                </div>
                            </div>","60","","0","images/D37.png","","","","[""Fine"",""Coarse""]"
"","","","","","html-slider-response","33","231018","0.0-27.0","y8ww4gm1t9","NaN","<div style=""width:500px;"">
                                <p style=""font-size:50px; font-weight:bold;""
                                ></p>
                                <div style=""width:240px; margin: auto;"">
                                    <img src=""images/D83.png"" style= ""width:200px""alt=""img"">
                                </div>
                            </div>","-85","","0","images/D83.png","","","","[""Fine"",""Coarse""]"
"","","","","","html-slider-response","34","233854","0.0-28.0","y8ww4gm1t9","NaN","<div style=""width:500px;"">
                                <p style=""font-size:50px; font-weight:bold;""
                                ></p>
                                <div style=""width:240px; margin: auto;"">
                                    <img src=""images/D46.png"" style= ""width:200px""alt=""img"">
                                </div>
                            </div>","-146","","0","images/D46.png","","","","[""Fine"",""Coarse""]"
"","","","","","html-slider-response","35","236285","0.0-29.0","y8ww4gm1t9","NaN","<div style=""width:500px;"">
                                <p style=""font-size:50px; font-weight:bold;""
                                ></p>
                                <div style=""width:240px; margin: auto;"">
                                    <img src=""images/D9.png"" style= ""width:200px""alt=""img"">
                                </div>
                            </div>","149","","0","images/D9.png","","","","[""Fine"",""Coarse""]"
"","","","","","html-slider-response","36","238735","0.0-30.0","y8ww4gm1t9","NaN","<div style=""width:500px;"">
                                <p style=""font-size:50px; font-weight:bold;""
                                ></p>
                                <div style=""width:240px; margin: auto;"">
                                    <img src=""images/D64.png"" style= ""width:200px""alt=""img"">
                                </div>
                            </div>","43","","0","images/D64.png","","","","[""Fine"",""Coarse""]"
"","","","","","html-slider-response","37","240701","0.0-31.0","y8ww4gm1t9","NaN","<div style=""width:500px;"">
                                <p style=""font-size:50px; font-weight:bold;""
                                ></p>
                                <div style=""width:240px; margin: auto;"">
                                    <img src=""images/D56.png"" style= ""width:200px""alt=""img"">
                                </div>
                            </div>","104","","0","images/D56.png","","","","[""Fine"",""Coarse""]"
"","","","","","html-slider-response","38","243437","0.0-32.0","y8ww4gm1t9","NaN","<div style=""width:500px;"">
                                <p style=""font-size:50px; font-weight:bold;""
                                ></p>
                                <div style=""width:240px; margin: auto;"">
                                    <img src=""images/D78.png"" style= ""width:200px""alt=""img"">
                                </div>
                            </div>","-61","","0","images/D78.png","","","","[""Fine"",""Coarse""]"
"","","","","","html-slider-response","39","246085","0.0-33.0","y8ww4gm1t9","NaN","<div style=""width:500px;"">
                                <p style=""font-size:50px; font-weight:bold;""
                                ></p>
                                <div style=""width:240px; margin: auto;"">
                                    <img src=""images/D47.png"" style= ""width:200px""alt=""img"">
                                </div>
                            </div>","-114","","0","images/D47.png","","","","[""Fine"",""Coarse""]"
"","","","","","html-slider-response","40","249951","0.0-34.0","y8ww4gm1t9","NaN","<div style=""width:500px;"">
                                <p style=""font-size:50px; font-weight:bold;""
                                ></p>
                                <div style=""width:240px; margin: auto;"">
                                    <img src=""images/D26.png"" style= ""width:200px""alt=""img"">
                                </div>
                            </div>","198","","0","images/D26.png","","","","[""Fine"",""Coarse""]"
"","","","","","html-slider-response","41","252718","0.0-35.0","y8ww4gm1t9","NaN","<div style=""width:500px;"">
                                <p style=""font-size:50px; font-weight:bold;""
                                ></p>
                                <div style=""width:240px; margin: auto;"">
                                    <img src=""images/D19.png"" style= ""width:200px""alt=""img"">
                                </div>
                            </div>","-38","","0","images/D19.png","","","","[""Fine"",""Coarse""]"
"","","","","","html-slider-response","42","256952","0.0-36.0","y8ww4gm1t9","NaN","<div style=""width:500px;"">
                                <p style=""font-size:50px; font-weight:bold;""
                                ></p>
                                <div style=""width:240px; margin: auto;"">
                                    <img src=""images/D53.png"" style= ""width:200px""alt=""img"">
                                </div>
                            </div>","61","","0","images/D53.png","","","","[""Fine"",""Coarse""]"
"","","","","","html-slider-response","43","261201","0.0-37.0","y8ww4gm1t9","NaN","<div style=""width:500px;"">
                                <p style=""font-size:50px; font-weight:bold;""
                                ></p>
                                <div style=""width:240px; margin: auto;"">
                                    <img src=""images/D49.png"" style= ""width:200px""alt=""img"">
                                </div>
                            </div>","1","","0","images/D49.png","","","","[""Fine"",""Coarse""]"
"","","","","","html-slider-response","44","263319","0.0-38.0","y8ww4gm1t9","NaN","<div style=""width:500px;"">
                                <p style=""font-size:50px; font-weight:bold;""
                                ></p>
                                <div style=""width:240px; margin: auto;"">
                                    <img src=""images/D84.png"" style= ""width:200px""alt=""img"">
                                </div>
                            </div>","82","","0","images/D84.png","","","","[""Fine"",""Coarse""]"
"","","","","","html-slider-response","45","265586","0.0-39.0","y8ww4gm1t9","NaN","<div style=""width:500px;"">
                                <p style=""font-size:50px; font-weight:bold;""
                                ></p>
                                <div style=""width:240px; margin: auto;"">
                                    <img src=""images/D20.png"" style= ""width:200px""alt=""img"">
                                </div>
                            </div>","-41","","0","images/D20.png","","","","[""Fine"",""Coarse""]"
"","","","","","html-slider-response","46","267436","0.0-40.0","y8ww4gm1t9","NaN","<div style=""width:500px;"">
                                <p style=""font-size:50px; font-weight:bold;""
                                ></p>
                                <div style=""width:240px; margin: auto;"">
                                    <img src=""images/D82.png"" style= ""width:200px""alt=""img"">
                                </div>
                            </div>","48","","0","images/D82.png","","","","[""Fine"",""Coarse""]"
"","","","","","html-slider-response","47","269385","0.0-41.0","y8ww4gm1t9","NaN","<div style=""width:500px;"">
                                <p style=""font-size:50px; font-weight:bold;""
                                ></p>
                                <div style=""width:240px; margin: auto;"">
                                    <img src=""images/D52.png"" style= ""width:200px""alt=""img"">
                                </div>
                            </div>","89","","0","images/D52.png","","","","[""Fine"",""Coarse""]"
"","","","","","html-slider-response","48","271951","0.0-42.0","y8ww4gm1t9","NaN","<div style=""width:500px;"">
                                <p style=""font-size:50px; font-weight:bold;""
                                ></p>
                                <div style=""width:240px; margin: auto;"">
                                    <img src=""images/D24.png"" style= ""width:200px""alt=""img"">
                                </div>
                            </div>","120","","0","images/D24.png","","","","[""Fine"",""Coarse""]"
"","","","","","html-slider-response","49","274485","0.0-43.0","y8ww4gm1t9","NaN","<div style=""width:500px;"">
                                <p style=""font-size:50px; font-weight:bold;""
                                ></p>
                                <div style=""width:240px; margin: auto;"">
                                    <img src=""images/D103.png"" style= ""width:200px""alt=""img"">
                                </div>
                            </div>","64","","0","images/D103.png","","","","[""Fine"",""Coarse""]"
"","","","","","html-slider-response","50","278001","0.0-44.0","y8ww4gm1t9","NaN","<div style=""width:500px;"">
                                <p style=""font-size:50px; font-weight:bold;""
                                ></p>
                                <div style=""width:240px; margin: auto;"">
                                    <img src=""images/D3.png"" style= ""width:200px""alt=""img"">
                                </div>
                            </div>","26","","0","images/D3.png","","","","[""Fine"",""Coarse""]"
"","","","","","html-slider-response","51","279770","0.0-45.0","y8ww4gm1t9","NaN","<div style=""width:500px;"">
                                <p style=""font-size:50px; font-weight:bold;""
                                ></p>
                                <div style=""width:240px; margin: auto;"">
                                    <img src=""images/D4.png"" style= ""width:200px""alt=""img"">
                                </div>
                            </div>","114","","0","images/D4.png","","","","[""Fine"",""Coarse""]"
"","","","","","html-slider-response","52","282268","0.0-46.0","y8ww4gm1t9","NaN","<div style=""width:500px;"">
                                <p style=""font-size:50px; font-weight:bold;""
                                ></p>
                                <div style=""width:240px; margin: auto;"">
                                    <img src=""images/D77.png"" style= ""width:200px""alt=""img"">
                                </div>
                            </div>","35","","0","images/D77.png","","","","[""Fine"",""Coarse""]"
"","","","","","html-slider-response","53","284586","0.0-47.0","y8ww4gm1t9","NaN","<div style=""width:500px;"">
                                <p style=""font-size:50px; font-weight:bold;""
                                ></p>
                                <div style=""width:240px; margin: auto;"">
                                    <img src=""images/D21.png"" style= ""width:200px""alt=""img"">
                                </div>
                            </div>","-37","","0","images/D21.png","","","","[""Fine"",""Coarse""]"
"","","","","","html-slider-response","54","291202","0.0-48.0","y8ww4gm1t9","NaN","<div style=""width:500px;"">
                                <p style=""font-size:50px; font-weight:bold;""
                                ></p>
                                <div style=""width:240px; margin: auto;"">
                                    <img src=""images/D80.png"" style= ""width:200px""alt=""img"">
                                </div>
                            </div>","109","","0","images/D80.png","","","","[""Fine"",""Coarse""]"
"","","","","","html-slider-response","55","294135","0.0-49.0","y8ww4gm1t9","NaN","<div style=""width:500px;"">
                                <p style=""font-size:50px; font-weight:bold;""
                                ></p>
                                <div style=""width:240px; margin: auto;"">
                                    <img src=""images/D6.png"" style= ""width:200px""alt=""img"">
                                </div>
                            </div>","-25","","0","images/D6.png","","","","[""Fine"",""Coarse""]"
"","","","","","html-slider-response","56","297120","0.0-50.0","y8ww4gm1t9","NaN","<div style=""width:500px;"">
                                <p style=""font-size:50px; font-weight:bold;""
                                ></p>
                                <div style=""width:240px; margin: auto;"">
                                    <img src=""images/D55.png"" style= ""width:200px""alt=""img"">
                                </div>
                            </div>","-18","","0","images/D55.png","","","","[""Fine"",""Coarse""]"
"","","","","","html-slider-response","57","299669","0.0-51.0","y8ww4gm1t9","NaN","<div style=""width:500px;"">
                                <p style=""font-size:50px; font-weight:bold;""
                                ></p>
                                <div style=""width:240px; margin: auto;"">
                                    <img src=""images/D25.png"" style= ""width:200px""alt=""img"">
                                </div>
                            </div>","197","","0","images/D25.png","","","","[""Fine"",""Coarse""]"
"","","","","","html-slider-response","58","301937","0.0-52.0","y8ww4gm1t9","NaN","<div style=""width:500px;"">
                                <p style=""font-size:50px; font-weight:bold;""
                                ></p>
                                <div style=""width:240px; margin: auto;"">
                                    <img src=""images/D96.png"" style= ""width:200px""alt=""img"">
                                </div>
                            </div>","200","","0","images/D96.png","","","","[""Fine"",""Coarse""]"
"","","","","","html-slider-response","59","305619","0.0-53.0","y8ww4gm1t9","NaN","<div style=""width:500px;"">
                                <p style=""font-size:50px; font-weight:bold;""
                                ></p>
                                <div style=""width:240px; margin: auto;"">
                                    <img src=""images/D106.png"" style= ""width:200px""alt=""img"">
                                </div>
                            </div>","-71","","0","images/D106.png","","","","[""Fine"",""Coarse""]"
"","","","","","html-slider-response","60","308402","0.0-54.0","y8ww4gm1t9","NaN","<div style=""width:500px;"">
                                <p style=""font-size:50px; font-weight:bold;""
                                ></p>
                                <div style=""width:240px; margin: auto;"">
                                    <img src=""images/D32.png"" style= ""width:200px""alt=""img"">
                                </div>
                            </div>","174","","0","images/D32.png","","","","[""Fine"",""Coarse""]"
"","","","","","html-slider-response","61","311685","0.0-55.0","y8ww4gm1t9","NaN","<div style=""width:500px;"">
                                <p style=""font-size:50px; font-weight:bold;""
                                ></p>
                                <div style=""width:240px; margin: auto;"">
                                    <img src=""images/D8.png"" style= ""width:200px""alt=""img"">
                                </div>
                            </div>","-81","","0","images/D8.png","","","","[""Fine"",""Coarse""]"
"","","","","","html-slider-response","62","313535","0.0-56.0","y8ww4gm1t9","NaN","<div style=""width:500px;"">
                                <p style=""font-size:50px; font-weight:bold;""
                                ></p>
                                <div style=""width:240px; margin: auto;"">
                                    <img src=""images/D36.png"" style= ""width:200px""alt=""img"">
                                </div>
                            </div>","103","","0","images/D36.png","","","","[""Fine"",""Coarse""]"
"","","","","","html-slider-response","63","316552","0.0-57.0","y8ww4gm1t9","NaN","<div style=""width:500px;"">
                                <p style=""font-size:50px; font-weight:bold;""
                                ></p>
                                <div style=""width:240px; margin: auto;"">
                                    <img src=""images/D57.png"" style= ""width:200px""alt=""img"">
                                </div>
                            </div>","133","","0","images/D57.png","","","","[""Fine"",""Coarse""]"
"","","","","","html-slider-response","64","320969","0.0-58.0","y8ww4gm1t9","NaN","<div style=""width:500px;"">
                                <p style=""font-size:50px; font-weight:bold;""
                                ></p>
                                <div style=""width:240px; margin: auto;"">
                                    <img src=""images/D18.png"" style= ""width:200px""alt=""img"">
                                </div>
                            </div>","46","","0","images/D18.png","","","","[""Fine"",""Coarse""]"
"","","","","","html-slider-response","65","325286","0.0-59.0","y8ww4gm1t9","NaN","<div style=""width:500px;"">
                                <p style=""font-size:50px; font-weight:bold;""
                                ></p>
                                <div style=""width:240px; margin: auto;"">
                                    <img src=""images/D22.png"" style= ""width:200px""alt=""img"">
                                </div>
                            </div>","58","","0","images/D22.png","","","","[""Fine"",""Coarse""]"
"","","","","","html-slider-response","66","333784","0.0-60.0","y8ww4gm1t9","NaN","<div style=""width:500px;"">
                                <p style=""font-size:50px; font-weight:bold;""
                                ></p>
                                <div style=""width:240px; margin: auto;"">
                                    <img src=""images/D104.png"" style= ""width:200px""alt=""img"">
                                </div>
                            </div>","-25","","0","images/D104.png","","","","[""Fine"",""Coarse""]"
"","","","","","html-slider-response","67","335601","0.0-61.0","y8ww4gm1t9","NaN","<div style=""width:500px;"">
                                <p style=""font-size:50px; font-weight:bold;""
                                ></p>
                                <div style=""width:240px; margin: auto;"">
                                    <img src=""images/D85.png"" style= ""width:200px""alt=""img"">
                                </div>
                            </div>","-70","","0","images/D85.png","","","","[""Fine"",""Coarse""]"
"","","","","","html-slider-response","68","337352","0.0-62.0","y8ww4gm1t9","NaN","<div style=""width:500px;"">
                                <p style=""font-size:50px; font-weight:bold;""
                                ></p>
                                <div style=""width:240px; margin: auto;"">
                                    <img src=""images/D35.png"" style= ""width:200px""alt=""img"">
                                </div>
                            </div>","67","","0","images/D35.png","","","","[""Fine"",""Coarse""]"
"","","","","","html-slider-response","69","340952","0.0-63.0","y8ww4gm1t9","NaN","<div style=""width:500px;"">
                                <p style=""font-size:50px; font-weight:bold;""
                                ></p>
                                <div style=""width:240px; margin: auto;"">
                                    <img src=""images/D1.png"" style= ""width:200px""alt=""img"">
                                </div>
                            </div>","26","","0","images/D1.png","","","","[""Fine"",""Coarse""]"
"","","","","","html-slider-response","70","343937","0.0-64.0","y8ww4gm1t9","NaN","<div style=""width:500px;"">
                                <p style=""font-size:50px; font-weight:bold;""
                                ></p>
                                <div style=""width:240px; margin: auto;"">
                                    <img src=""images/D79.png"" style= ""width:200px""alt=""img"">
                                </div>
                            </div>","-47","","0","images/D79.png","","","","[""Fine"",""Coarse""]"
"","","","","","html-slider-response","71","346836","0.0-65.0","y8ww4gm1t9","NaN","<div style=""width:500px;"">
                                <p style=""font-size:50px; font-weight:bold;""
                                ></p>
                                <div style=""width:240px; margin: auto;"">
                                    <img src=""images/D105.png"" style= ""width:200px""alt=""img"">
                                </div>
                            </div>","-30","","0","images/D105.png","","","","[""Fine"",""Coarse""]"
"","","","","","html-slider-response","72","349001","0.0-66.0","y8ww4gm1t9","NaN","<div style=""width:500px;"">
                                <p style=""font-size:50px; font-weight:bold;""
                                ></p>
                                <div style=""width:240px; margin: auto;"">
                                    <img src=""images/D102.png"" style= ""width:200px""alt=""img"">
                                </div>
                            </div>","-87","","0","images/D102.png","","","","[""Fine"",""Coarse""]"
"","","","","","html-slider-response","73","351235","0.0-67.0","y8ww4gm1t9","NaN","<div style=""width:500px;"">
                                <p style=""font-size:50px; font-weight:bold;""
                                ></p>
                                <div style=""width:240px; margin: auto;"">
                                    <img src=""images/D74.png"" style= ""width:200px""alt=""img"">
                                </div>
                            </div>","96","","0","images/D74.png","","","","[""Fine"",""Coarse""]"
"","","","","","html-slider-response","74","354987","0.0-68.0","y8ww4gm1t9","NaN","<div style=""width:500px;"">
                                <p style=""font-size:50px; font-weight:bold;""
                                ></p>
                                <div style=""width:240px; margin: auto;"">
                                    <img src=""images/D68.png"" style= ""width:200px""alt=""img"">
                                </div>
                            </div>","-100","","0","images/D68.png","","","","[""Fine"",""Coarse""]"
"","","","","","html-slider-response","75","357951","0.0-69.0","y8ww4gm1t9","NaN","<div style=""width:500px;"">
                                <p style=""font-size:50px; font-weight:bold;""
                                ></p>
                                <div style=""width:240px; margin: auto;"">
                                    <img src=""images/D14.png"" style= ""width:200px""alt=""img"">
                                </div>
                            </div>","70","","0","images/D14.png","","","","[""Fine"",""Coarse""]"
"","","","","","html-slider-response","76","361752","0.0-70.0","y8ww4gm1t9","NaN","<div style=""width:500px;"">
                                <p style=""font-size:50px; font-weight:bold;""
                                ></p>
                                <div style=""width:240px; margin: auto;"">
                                    <img src=""images/D111.png"" style= ""width:200px""alt=""img"">
                                </div>
                            </div>","89","","0","images/D111.png","","","","[""Fine"",""Coarse""]"
"","","","","","html-slider-response","77","365202","0.0-71.0","y8ww4gm1t9","NaN","<div style=""width:500px;"">
                                <p style=""font-size:50px; font-weight:bold;""
                                ></p>
                                <div style=""width:240px; margin: auto;"">
                                    <img src=""images/D95.png"" style= ""width:200px""alt=""img"">
                                </div>
                            </div>","194","","0","images/D95.png","","","","[""Fine"",""Coarse""]"
"","","","","","html-slider-response","78","367005","0.0-72.0","y8ww4gm1t9","NaN","<div style=""width:500px;"">
                                <p style=""font-size:50px; font-weight:bold;""
                                ></p>
                                <div style=""width:240px; margin: auto;"">
                                    <img src=""images/D34.png"" style= ""width:200px""alt=""img"">
                                </div>
                            </div>","-58","","0","images/D34.png","","","","[""Fine"",""Coarse""]"
"","","","","","html-slider-response","79","374003","0.0-73.0","y8ww4gm1t9","NaN","<div style=""width:500px;"">
                                <p style=""font-size:50px; font-weight:bold;""
                                ></p>
                                <div style=""width:240px; margin: auto;"">
                                    <img src=""images/D48.png"" style= ""width:200px""alt=""img"">
                                </div>
                            </div>","65","","0","images/D48.png","","","","[""Fine"",""Coarse""]"
"","","","","","html-slider-response","80","377653","0.0-74.0","y8ww4gm1t9","NaN","<div style=""width:500px;"">
                                <p style=""font-size:50px; font-weight:bold;""
                                ></p>
                                <div style=""width:240px; margin: auto;"">
                                    <img src=""images/D75.png"" style= ""width:200px""alt=""img"">
                                </div>
                            </div>","74","","0","images/D75.png","","","","[""Fine"",""Coarse""]"
"","","","","","html-slider-response","81","379385","0.0-75.0","y8ww4gm1t9","NaN","<div style=""width:500px;"">
                                <p style=""font-size:50px; font-weight:bold;""
                                ></p>
                                <div style=""width:240px; margin: auto;"">
                                    <img src=""images/D92.png"" style= ""width:200px""alt=""img"">
                                </div>
                            </div>","127","","0","images/D92.png","","","","[""Fine"",""Coarse""]"
"","","","","","html-button-response","82","382674","0.0-76.0","y8ww4gm1t9","2785","You have completed the first block of trials out of six. Please click 'Continue' when you are ready proceed.","0","","","","","","",""
"","","","","","html-button-response","83","383777","0.0-77.0","y8ww4gm1t9","1101","In the following trials, you will be asked to rate textures on the scale <b>Smooth</b> versus <b>Rough</b>. Please click 'Continue' when you are ready proceed.","0","","","","","","",""
"","","","","","html-slider-response","84","386020","0.0-78.0","y8ww4gm1t9","NaN","<div style=""width:500px;"">
                                <p style=""font-size:50px; font-weight:bold;""
                                ></p>
                                <div style=""width:240px; margin: auto;"">
                                    <img src=""images/D52.png"" style= ""width:200px""alt=""img"">
                                </div>
                            </div>","148","","0","images/D52.png","","","","[""Smooth"",""Rough""]"
"","","","","","html-slider-response","85","387968","0.0-79.0","y8ww4gm1t9","NaN","<div style=""width:500px;"">
                                <p style=""font-size:50px; font-weight:bold;""
                                ></p>
                                <div style=""width:240px; margin: auto;"">
                                    <img src=""images/D56.png"" style= ""width:200px""alt=""img"">
                                </div>
                            </div>","128","","0","images/D56.png","","","","[""Smooth"",""Rough""]"
"","","","","","html-slider-response","86","390086","0.0-80.0","y8ww4gm1t9","NaN","<div style=""width:500px;"">
                                <p style=""font-size:50px; font-weight:bold;""
                                ></p>
                                <div style=""width:240px; margin: auto;"">
                                    <img src=""images/D104.png"" style= ""width:200px""alt=""img"">
                                </div>
                            </div>","-90","","0","images/D104.png","","","","[""Smooth"",""Rough""]"
"","","","","","html-slider-response","87","391653","0.0-81.0","y8ww4gm1t9","NaN","<div style=""width:500px;"">
                                <p style=""font-size:50px; font-weight:bold;""
                                ></p>
                                <div style=""width:240px; margin: auto;"">
                                    <img src=""images/D32.png"" style= ""width:200px""alt=""img"">
                                </div>
                            </div>","136","","0","images/D32.png","","","","[""Smooth"",""Rough""]"
"","","","","","html-slider-response","88","393553","0.0-82.0","y8ww4gm1t9","NaN","<div style=""width:500px;"">
                                <p style=""font-size:50px; font-weight:bold;""
                                ></p>
                                <div style=""width:240px; margin: auto;"">
                                    <img src=""images/D111.png"" style= ""width:200px""alt=""img"">
                                </div>
                            </div>","133","","0","images/D111.png","","","","[""Smooth"",""Rough""]"
"","","","","","html-slider-response","89","395536","0.0-83.0","y8ww4gm1t9","NaN","<div style=""width:500px;"">
                                <p style=""font-size:50px; font-weight:bold;""
                                ></p>
                                <div style=""width:240px; margin: auto;"">
                                    <img src=""images/D78.png"" style= ""width:200px""alt=""img"">
                                </div>
                            </div>","-78","","0","images/D78.png","","","","[""Smooth"",""Rough""]"
"","","","","","html-slider-response","90","397268","0.0-84.0","y8ww4gm1t9","NaN","<div style=""width:500px;"">
                                <p style=""font-size:50px; font-weight:bold;""
                                ></p>
                                <div style=""width:240px; margin: auto;"">
                                    <img src=""images/D16.png"" style= ""width:200px""alt=""img"">
                                </div>
                            </div>","-145","","0","images/D16.png","","","","[""Smooth"",""Rough""]"
"","","","","","html-slider-response","91","399086","0.0-85.0","y8ww4gm1t9","NaN","<div style=""width:500px;"">
                                <p style=""font-size:50px; font-weight:bold;""
                                ></p>
                                <div style=""width:240px; margin: auto;"">
                                    <img src=""images/D79.png"" style= ""width:200px""alt=""img"">
                                </div>
                            </div>","-108","","0","images/D79.png","","","","[""Smooth"",""Rough""]"
"","","","","","html-slider-response","92","400684","0.0-86.0","y8ww4gm1t9","NaN","<div style=""width:500px;"">
                                <p style=""font-size:50px; font-weight:bold;""
                                ></p>
                                <div style=""width:240px; margin: auto;"">
                                    <img src=""images/D14.png"" style= ""width:200px""alt=""img"">
                                </div>
                            </div>","-130","","0","images/D14.png","","","","[""Smooth"",""Rough""]"
"","","","","","html-slider-response","93","402337","0.0-87.0","y8ww4gm1t9","NaN","<div style=""width:500px;"">
                                <p style=""font-size:50px; font-weight:bold;""
                                ></p>
                                <div style=""width:240px; margin: auto;"">
                                    <img src=""images/D51.png"" style= ""width:200px""alt=""img"">
                                </div>
                            </div>","-130","","0","images/D51.png","","","","[""Smooth"",""Rough""]"
"","","","","","html-slider-response","94","404437","0.0-88.0","y8ww4gm1t9","NaN","<div style=""width:500px;"">
                                <p style=""font-size:50px; font-weight:bold;""
                                ></p>
                                <div style=""width:240px; margin: auto;"">
                                    <img src=""images/D6.png"" style= ""width:200px""alt=""img"">
                                </div>
                            </div>","-30","","0","images/D6.png","","","","[""Smooth"",""Rough""]"
"","","","","","html-slider-response","95","407068","0.0-89.0","y8ww4gm1t9","NaN","<div style=""width:500px;"">
                                <p style=""font-size:50px; font-weight:bold;""
                                ></p>
                                <div style=""width:240px; margin: auto;"">
                                    <img src=""images/D83.png"" style= ""width:200px""alt=""img"">
                                </div>
                            </div>","-2","","0","images/D83.png","","","","[""Smooth"",""Rough""]"
"","","","","","html-slider-response","96","409368","0.0-90.0","y8ww4gm1t9","NaN","<div style=""width:500px;"">
                                <p style=""font-size:50px; font-weight:bold;""
                                ></p>
                                <div style=""width:240px; margin: auto;"">
                                    <img src=""images/D11.png"" style= ""width:200px""alt=""img"">
                                </div>
                            </div>","-1","","0","images/D11.png","","","","[""Smooth"",""Rough""]"
"","","","","","html-slider-response","97","411686","0.0-91.0","y8ww4gm1t9","NaN","<div style=""width:500px;"">
                                <p style=""font-size:50px; font-weight:bold;""
                                ></p>
                                <div style=""width:240px; margin: auto;"">
                                    <img src=""images/D94.png"" style= ""width:200px""alt=""img"">
                                </div>
                            </div>","195","","0","images/D94.png","","","","[""Smooth"",""Rough""]"
"","","","","","html-slider-response","98","413868","0.0-92.0","y8ww4gm1t9","NaN","<div style=""width:500px;"">
                                <p style=""font-size:50px; font-weight:bold;""
                                ></p>
                                <div style=""width:240px; margin: auto;"">
                                    <img src=""images/D37.png"" style= ""width:200px""alt=""img"">
                                </div>
                            </div>","-59","","0","images/D37.png","","","","[""Smooth"",""Rough""]"
"","","","","","html-slider-response","99","416053","0.0-93.0","y8ww4gm1t9","NaN","<div style=""width:500px;"">
                                <p style=""font-size:50px; font-weight:bold;""
                                ></p>
                                <div style=""width:240px; margin: auto;"">
                                    <img src=""images/D19.png"" style= ""width:200px""alt=""img"">
                                </div>
                            </div>","94","","0","images/D19.png","","","","[""Smooth"",""Rough""]"
"","","","","","html-slider-response","100","417901","0.0-94.0","y8ww4gm1t9","NaN","<div style=""width:500px;"">
                                <p style=""font-size:50px; font-weight:bold;""
                                ></p>
                                <div style=""width:240px; margin: auto;"">
                                    <img src=""images/D77.png"" style= ""width:200px""alt=""img"">
                                </div>
                            </div>","-78","","0","images/D77.png","","","","[""Smooth"",""Rough""]"
"","","","","","html-slider-response","101","420218","0.0-95.0","y8ww4gm1t9","NaN","<div style=""width:500px;"">
                                <p style=""font-size:50px; font-weight:bold;""
                                ></p>
                                <div style=""width:240px; margin: auto;"">
                                    <img src=""images/D35.png"" style= ""width:200px""alt=""img"">
                                </div>
                            </div>","161","","0","images/D35.png","","","","[""Smooth"",""Rough""]"
"","","","","","html-slider-response","102","422369","0.0-96.0","y8ww4gm1t9","NaN","<div style=""width:500px;"">
                                <p style=""font-size:50px; font-weight:bold;""
                                ></p>
                                <div style=""width:240px; margin: auto;"">
                                    <img src=""images/D84.png"" style= ""width:200px""alt=""img"">
                                </div>
                            </div>","87","","0","images/D84.png","","","","[""Smooth"",""Rough""]"
"","","","","","html-slider-response","103","424135","0.0-97.0","y8ww4gm1t9","NaN","<div style=""width:500px;"">
                                <p style=""font-size:50px; font-weight:bold;""
                                ></p>
                                <div style=""width:240px; margin: auto;"">
                                    <img src=""images/D64.png"" style= ""width:200px""alt=""img"">
                                </div>
                            </div>","34","","0","images/D64.png","","","","[""Smooth"",""Rough""]"
"","","","","","html-slider-response","104","426668","0.0-98.0","y8ww4gm1t9","NaN","<div style=""width:500px;"">
                                <p style=""font-size:50px; font-weight:bold;""
                                ></p>
                                <div style=""width:240px; margin: auto;"">
                                    <img src=""images/D101.png"" style= ""width:200px""alt=""img"">
                                </div>
                            </div>","-168","","0","images/D101.png","","","","[""Smooth"",""Rough""]"
"","","","","","html-slider-response","105","428469","0.0-99.0","y8ww4gm1t9","NaN","<div style=""width:500px;"">
                                <p style=""font-size:50px; font-weight:bold;""
                                ></p>
                                <div style=""width:240px; margin: auto;"">
                                    <img src=""images/D65.png"" style= ""width:200px""alt=""img"">
                                </div>
                            </div>","130","","0","images/D65.png","","","","[""Smooth"",""Rough""]"
"","","","","","html-slider-response","106","430768","0.0-100.0","y8ww4gm1t9","NaN","<div style=""width:500px;"">
                                <p style=""font-size:50px; font-weight:bold;""
                                ></p>
                                <div style=""width:240px; margin: auto;"">
                                    <img src=""images/D22.png"" style= ""width:200px""alt=""img"">
                                </div>
                            </div>","43","","0","images/D22.png","","","","[""Smooth"",""Rough""]"
"","","","","","html-slider-response","107","432336","0.0-101.0","y8ww4gm1t9","NaN","<div style=""width:500px;"">
                                <p style=""font-size:50px; font-weight:bold;""
                                ></p>
                                <div style=""width:240px; margin: auto;"">
                                    <img src=""images/D8.png"" style= ""width:200px""alt=""img"">
                                </div>
                            </div>","-77","","0","images/D8.png","","","","[""Smooth"",""Rough""]"
"","","","","","html-slider-response","108","434118","0.0-102.0","y8ww4gm1t9","NaN","<div style=""width:500px;"">
                                <p style=""font-size:50px; font-weight:bold;""
                                ></p>
                                <div style=""width:240px; margin: auto;"">
                                    <img src=""images/D53.png"" style= ""width:200px""alt=""img"">
                                </div>
                            </div>","-137","","0","images/D53.png","","","","[""Smooth"",""Rough""]"
"","","","","","html-slider-response","109","436852","0.0-103.0","y8ww4gm1t9","NaN","<div style=""width:500px;"">
                                <p style=""font-size:50px; font-weight:bold;""
                                ></p>
                                <div style=""width:240px; margin: auto;"">
                                    <img src=""images/D95.png"" style= ""width:200px""alt=""img"">
                                </div>
                            </div>","191","","0","images/D95.png","","","","[""Smooth"",""Rough""]"
"","","","","","html-slider-response","110","438483","0.0-104.0","y8ww4gm1t9","NaN","<div style=""width:500px;"">
                                <p style=""font-size:50px; font-weight:bold;""
                                ></p>
                                <div style=""width:240px; margin: auto;"">
                                    <img src=""images/D76.png"" style= ""width:200px""alt=""img"">
                                </div>
                            </div>","-105","","0","images/D76.png","","","","[""Smooth"",""Rough""]"
"","","","","","html-slider-response","111","440353","0.0-105.0","y8ww4gm1t9","NaN","<div style=""width:500px;"">
                                <p style=""font-size:50px; font-weight:bold;""
                                ></p>
                                <div style=""width:240px; margin: auto;"">
                                    <img src=""images/D17.png"" style= ""width:200px""alt=""img"">
                                </div>
                            </div>","91","","0","images/D17.png","","","","[""Smooth"",""Rough""]"
"","","","","","html-slider-response","112","442117","0.0-106.0","y8ww4gm1t9","NaN","<div style=""width:500px;"">
                                <p style=""font-size:50px; font-weight:bold;""
                                ></p>
                                <div style=""width:240px; margin: auto;"">
                                    <img src=""images/D26.png"" style= ""width:200px""alt=""img"">
                                </div>
                            </div>","176","","0","images/D26.png","","","","[""Smooth"",""Rough""]"
"","","","","","html-slider-response","113","444870","0.0-107.0","y8ww4gm1t9","NaN","<div style=""width:500px;"">
                                <p style=""font-size:50px; font-weight:bold;""
                                ></p>
                                <div style=""width:240px; margin: auto;"">
                                    <img src=""images/D20.png"" style= ""width:200px""alt=""img"">
                                </div>
                            </div>","-59","","0","images/D20.png","","","","[""Smooth"",""Rough""]"
"","","","","","html-slider-response","114","449551","0.0-108.0","y8ww4gm1t9","NaN","<div style=""width:500px;"">
                                <p style=""font-size:50px; font-weight:bold;""
                                ></p>
                                <div style=""width:240px; margin: auto;"">
                                    <img src=""images/D29.png"" style= ""width:200px""alt=""img"">
                                </div>
                            </div>","67","","0","images/D29.png","","","","[""Smooth"",""Rough""]"
"","","","","","html-slider-response","115","452836","0.0-109.0","y8ww4gm1t9","NaN","<div style=""width:500px;"">
                                <p style=""font-size:50px; font-weight:bold;""
                                ></p>
                                <div style=""width:240px; margin: auto;"">
                                    <img src=""images/D102.png"" style= ""width:200px""alt=""img"">
                                </div>
                            </div>","-156","","0","images/D102.png","","","","[""Smooth"",""Rough""]"
"","","","","","html-slider-response","116","455218","0.0-110.0","y8ww4gm1t9","NaN","<div style=""width:500px;"">
                                <p style=""font-size:50px; font-weight:bold;""
                                ></p>
                                <div style=""width:240px; margin: auto;"">
                                    <img src=""images/D21.png"" style= ""width:200px""alt=""img"">
                                </div>
                            </div>","-62","","0","images/D21.png","","","","[""Smooth"",""Rough""]"
"","","","","","html-slider-response","117","457152","0.0-111.0","y8ww4gm1t9","NaN","<div style=""width:500px;"">
                                <p style=""font-size:50px; font-weight:bold;""
                                ></p>
                                <div style=""width:240px; margin: auto;"">
                                    <img src=""images/D80.png"" style= ""width:200px""alt=""img"">
                                </div>
                            </div>","39","","0","images/D80.png","","","","[""Smooth"",""Rough""]"
"","","","","","html-slider-response","118","460740","0.0-112.0","y8ww4gm1t9","NaN","<div style=""width:500px;"">
                                <p style=""font-size:50px; font-weight:bold;""
                                ></p>
                                <div style=""width:240px; margin: auto;"">
                                    <img src=""images/D57.png"" style= ""width:200px""alt=""img"">
                                </div>
                            </div>","74","","0","images/D57.png","","","","[""Smooth"",""Rough""]"
"","","","","","html-slider-response","119","463235","0.0-113.0","y8ww4gm1t9","NaN","<div style=""width:500px;"">
                                <p style=""font-size:50px; font-weight:bold;""
                                ></p>
                                <div style=""width:240px; margin: auto;"">
                                    <img src=""images/D46.png"" style= ""width:200px""alt=""img"">
                                </div>
                            </div>","-114","","0","images/D46.png","","","","[""Smooth"",""Rough""]"
"","","","","","html-slider-response","120","466870","0.0-114.0","y8ww4gm1t9","NaN","<div style=""width:500px;"">
                                <p style=""font-size:50px; font-weight:bold;""
                                ></p>
                                <div style=""width:240px; margin: auto;"">
                                    <img src=""images/D92.png"" style= ""width:200px""alt=""img"">
                                </div>
                            </div>","113","","0","images/D92.png","","","","[""Smooth"",""Rough""]"
"","","","","","html-slider-response","121","468918","0.0-115.0","y8ww4gm1t9","NaN","<div style=""width:500px;"">
                                <p style=""font-size:50px; font-weight:bold;""
                                ></p>
                                <div style=""width:240px; margin: auto;"">
                                    <img src=""images/D85.png"" style= ""width:200px""alt=""img"">
                                </div>
                            </div>","-65","","0","images/D85.png","","","","[""Smooth"",""Rough""]"
"","","","","","html-slider-response","122","470868","0.0-116.0","y8ww4gm1t9","NaN","<div style=""width:500px;"">
                                <p style=""font-size:50px; font-weight:bold;""
                                ></p>
                                <div style=""width:240px; margin: auto;"">
                                    <img src=""images/D81.png"" style= ""width:200px""alt=""img"">
                                </div>
                            </div>","-106","","0","images/D81.png","","","","[""Smooth"",""Rough""]"
"","","","","","html-slider-response","123","473335","0.0-117.0","y8ww4gm1t9","NaN","<div style=""width:500px;"">
                                <p style=""font-size:50px; font-weight:bold;""
                                ></p>
                                <div style=""width:240px; margin: auto;"">
                                    <img src=""images/D49.png"" style= ""width:200px""alt=""img"">
                                </div>
                            </div>","-121","","0","images/D49.png","","","","[""Smooth"",""Rough""]"
"","","","","","html-slider-response","124","480602","0.0-118.0","y8ww4gm1t9","NaN","<div style=""width:500px;"">
                                <p style=""font-size:50px; font-weight:bold;""
                                ></p>
                                <div style=""width:240px; margin: auto;"">
                                    <img src=""images/D55.png"" style= ""width:200px""alt=""img"">
                                </div>
                            </div>","-49","","0","images/D55.png","","","","[""Smooth"",""Rough""]"
"","","","","","html-slider-response","125","486720","0.0-119.0","y8ww4gm1t9","NaN","<div style=""width:500px;"">
                                <p style=""font-size:50px; font-weight:bold;""
                                ></p>
                                <div style=""width:240px; margin: auto;"">
                                    <img src=""images/D48.png"" style= ""width:200px""alt=""img"">
                                </div>
                            </div>","-47","","0","images/D48.png","","","","[""Smooth"",""Rough""]"
"","","","","","html-slider-response","126","488817","0.0-120.0","y8ww4gm1t9","NaN","<div style=""width:500px;"">
                                <p style=""font-size:50px; font-weight:bold;""
                                ></p>
                                <div style=""width:240px; margin: auto;"">
                                    <img src=""images/D24.png"" style= ""width:200px""alt=""img"">
                                </div>
                            </div>","27","","0","images/D24.png","","","","[""Smooth"",""Rough""]"
"","","","","","html-slider-response","127","491019","0.0-121.0","y8ww4gm1t9","NaN","<div style=""width:500px;"">
                                <p style=""font-size:50px; font-weight:bold;""
                                ></p>
                                <div style=""width:240px; margin: auto;"">
                                    <img src=""images/D82.png"" style= ""width:200px""alt=""img"">
                                </div>
                            </div>","71","","0","images/D82.png","","","","[""Smooth"",""Rough""]"
"","","","","","html-slider-response","128","493151","0.0-122.0","y8ww4gm1t9","NaN","<div style=""width:500px;"">
                                <p style=""font-size:50px; font-weight:bold;""
                                ></p>
                                <div style=""width:240px; margin: auto;"">
                                    <img src=""images/D74.png"" style= ""width:200px""alt=""img"">
                                </div>
                            </div>","87","","0","images/D74.png","","","","[""Smooth"",""Rough""]"
"","","","","","html-slider-response","129","495002","0.0-123.0","y8ww4gm1t9","NaN","<div style=""width:500px;"">
                                <p style=""font-size:50px; font-weight:bold;""
                                ></p>
                                <div style=""width:240px; margin: auto;"">
                                    <img src=""images/D106.png"" style= ""width:200px""alt=""img"">
                                </div>
                            </div>","-102","","0","images/D106.png","","","","[""Smooth"",""Rough""]"
"","","","","","html-slider-response","130","496785","0.0-124.0","y8ww4gm1t9","NaN","<div style=""width:500px;"">
                                <p style=""font-size:50px; font-weight:bold;""
                                ></p>
                                <div style=""width:240px; margin: auto;"">
                                    <img src=""images/D3.png"" style= ""width:200px""alt=""img"">
                                </div>
                            </div>","82","","0","images/D3.png","","","","[""Smooth"",""Rough""]"
"","","","","","html-slider-response","131","498636","0.0-125.0","y8ww4gm1t9","NaN","<div style=""width:500px;"">
                                <p style=""font-size:50px; font-weight:bold;""
                                ></p>
                                <div style=""width:240px; margin: auto;"">
                                    <img src=""images/D87.png"" style= ""width:200px""alt=""img"">
                                </div>
                            </div>","74","","0","images/D87.png","","","","[""Smooth"",""Rough""]"
"","","","","","html-slider-response","132","500305","0.0-126.0","y8ww4gm1t9","NaN","<div style=""width:500px;"">
                                <p style=""font-size:50px; font-weight:bold;""
                                ></p>
                                <div style=""width:240px; margin: auto;"">
                                    <img src=""images/D4.png"" style= ""width:200px""alt=""img"">
                                </div>
                            </div>","121","","0","images/D4.png","","","","[""Smooth"",""Rough""]"
"","","","","","html-slider-response","133","502686","0.0-127.0","y8ww4gm1t9","NaN","<div style=""width:500px;"">
                                <p style=""font-size:50px; font-weight:bold;""
                                ></p>
                                <div style=""width:240px; margin: auto;"">
                                    <img src=""images/D34.png"" style= ""width:200px""alt=""img"">
                                </div>
                            </div>","-42","","0","images/D34.png","","","","[""Smooth"",""Rough""]"
"","","","","","html-slider-response","134","504420","0.0-128.0","y8ww4gm1t9","NaN","<div style=""width:500px;"">
                                <p style=""font-size:50px; font-weight:bold;""
                                ></p>
                                <div style=""width:240px; margin: auto;"">
                                    <img src=""images/D68.png"" style= ""width:200px""alt=""img"">
                                </div>
                            </div>","-94","","0","images/D68.png","","","","[""Smooth"",""Rough""]"
"","","","","","html-slider-response","135","506420","0.0-129.0","y8ww4gm1t9","NaN","<div style=""width:500px;"">
                                <p style=""font-size:50px; font-weight:bold;""
                                ></p>
                                <div style=""width:240px; margin: auto;"">
                                    <img src=""images/D105.png"" style= ""width:200px""alt=""img"">
                                </div>
                            </div>","-100","","0","images/D105.png","","","","[""Smooth"",""Rough""]"
"","","","","","html-slider-response","136","508468","0.0-130.0","y8ww4gm1t9","NaN","<div style=""width:500px;"">
                                <p style=""font-size:50px; font-weight:bold;""
                                ></p>
                                <div style=""width:240px; margin: auto;"">
                                    <img src=""images/D75.png"" style= ""width:200px""alt=""img"">
                                </div>
                            </div>","126","","0","images/D75.png","","","","[""Smooth"",""Rough""]"
"","","","","","html-slider-response","137","510819","0.0-131.0","y8ww4gm1t9","NaN","<div style=""width:500px;"">
                                <p style=""font-size:50px; font-weight:bold;""
                                ></p>
                                <div style=""width:240px; margin: auto;"">
                                    <img src=""images/D96.png"" style= ""width:200px""alt=""img"">
                                </div>
                            </div>","196","","0","images/D96.png","","","","[""Smooth"",""Rough""]"
"","","","","","html-slider-response","138","512669","0.0-132.0","y8ww4gm1t9","NaN","<div style=""width:500px;"">
                                <p style=""font-size:50px; font-weight:bold;""
                                ></p>
                                <div style=""width:240px; margin: auto;"">
                                    <img src=""images/D47.png"" style= ""width:200px""alt=""img"">
                                </div>
                            </div>","55","","0","images/D47.png","","","","[""Smooth"",""Rough""]"
"","","","","","html-slider-response","139","514670","0.0-133.0","y8ww4gm1t9","NaN","<div style=""width:500px;"">
                                <p style=""font-size:50px; font-weight:bold;""
                                ></p>
                                <div style=""width:240px; margin: auto;"">
                                    <img src=""images/D25.png"" style= ""width:200px""alt=""img"">
                                </div>
                            </div>","115","","0","images/D25.png","","","","[""Smooth"",""Rough""]"
"","","","","","html-slider-response","140","516337","0.0-134.0","y8ww4gm1t9","NaN","<div style=""width:500px;"">
                                <p style=""font-size:50px; font-weight:bold;""
                                ></p>
                                <div style=""width:240px; margin: auto;"">
                                    <img src=""images/D103.png"" style= ""width:200px""alt=""img"">
                                </div>
                            </div>","-63","","0","images/D103.png","","","","[""Smooth"",""Rough""]"
"","","","","","html-slider-response","141","518469","0.0-135.0","y8ww4gm1t9","NaN","<div style=""width:500px;"">
                                <p style=""font-size:50px; font-weight:bold;""
                                ></p>
                                <div style=""width:240px; margin: auto;"">
                                    <img src=""images/D36.png"" style= ""width:200px""alt=""img"">
                                </div>
                            </div>","-116","","0","images/D36.png","","","","[""Smooth"",""Rough""]"
"","","","","","html-slider-response","142","520436","0.0-136.0","y8ww4gm1t9","NaN","<div style=""width:500px;"">
                                <p style=""font-size:50px; font-weight:bold;""
                                ></p>
                                <div style=""width:240px; margin: auto;"">
                                    <img src=""images/D1.png"" style= ""width:200px""alt=""img"">
                                </div>
                            </div>","146","","0","images/D1.png","","","","[""Smooth"",""Rough""]"
"","","","","","html-slider-response","143","522440","0.0-137.0","y8ww4gm1t9","NaN","<div style=""width:500px;"">
                                <p style=""font-size:50px; font-weight:bold;""
                                ></p>
                                <div style=""width:240px; margin: auto;"">
                                    <img src=""images/D18.png"" style= ""width:200px""alt=""img"">
                                </div>
                            </div>","110","","0","images/D18.png","","","","[""Smooth"",""Rough""]"
"","","","","","html-slider-response","144","524085","0.0-138.0","y8ww4gm1t9","NaN","<div style=""width:500px;"">
                                <p style=""font-size:50px; font-weight:bold;""
                                ></p>
                                <div style=""width:240px; margin: auto;"">
                                    <img src=""images/D9.png"" style= ""width:200px""alt=""img"">
                                </div>
                            </div>","75","","0","images/D9.png","","","","[""Smooth"",""Rough""]"
"","","","","","html-slider-response","145","525937","0.0-139.0","y8ww4gm1t9","NaN","<div style=""width:500px;"">
                                <p style=""font-size:50px; font-weight:bold;""
                                ></p>
                                <div style=""width:240px; margin: auto;"">
                                    <img src=""images/D66.png"" style= ""width:200px""alt=""img"">
                                </div>
                            </div>","52","","0","images/D66.png","","","","[""Smooth"",""Rough""]"
"","","","","","html-button-response","146","527742","0.0-140.0","y8ww4gm1t9","1303","You have completed the second block of trials out of six. Please click 'Continue' when you are ready proceed.","0","","","","","","",""
"","","","","","html-button-response","147","529242","0.0-141.0","y8ww4gm1t9","1498","In the following trials, you will be asked to rate textures on the scale <b>Non-Random</b> versus <b>Random</b>. Please click 'Continue' when you are ready proceed.","0","","","","","","",""
"","","","","","html-slider-response","148","533703","0.0-142.0","y8ww4gm1t9","NaN","<div style=""width:500px;"">
                                <p style=""font-size:50px; font-weight:bold;""
                                ></p>
                                <div style=""width:240px; margin: auto;"">
                                    <img src=""images/D81.png"" style= ""width:200px""alt=""img"">
                                </div>
                            </div>","93","","0","images/D81.png","","","","[""Non-random"",""Random""]"
"","","","","","html-slider-response","149","536070","0.0-143.0","y8ww4gm1t9","NaN","<div style=""width:500px;"">
                                <p style=""font-size:50px; font-weight:bold;""
                                ></p>
                                <div style=""width:240px; margin: auto;"">
                                    <img src=""images/D17.png"" style= ""width:200px""alt=""img"">
                                </div>
                            </div>","-173","","0","images/D17.png","","","","[""Non-random"",""Random""]"
"","","","","","html-slider-response","150","537755","0.0-144.0","y8ww4gm1t9","NaN","<div style=""width:500px;"">
                                <p style=""font-size:50px; font-weight:bold;""
                                ></p>
                                <div style=""width:240px; margin: auto;"">
                                    <img src=""images/D101.png"" style= ""width:200px""alt=""img"">
                                </div>
                            </div>","-163","","0","images/D101.png","","","","[""Non-random"",""Random""]"
"","","","","","html-slider-response","151","542022","0.0-145.0","y8ww4gm1t9","NaN","<div style=""width:500px;"">
                                <p style=""font-size:50px; font-weight:bold;""
                                ></p>
                                <div style=""width:240px; margin: auto;"">
                                    <img src=""images/D16.png"" style= ""width:200px""alt=""img"">
                                </div>
                            </div>","-34","","0","images/D16.png","","","","[""Non-random"",""Random""]"
"","","","","","html-slider-response","152","546253","0.0-146.0","y8ww4gm1t9","NaN","<div style=""width:500px;"">
                                <p style=""font-size:50px; font-weight:bold;""
                                ></p>
                                <div style=""width:240px; margin: auto;"">
                                    <img src=""images/D94.png"" style= ""width:200px""alt=""img"">
                                </div>
                            </div>","66","","0","images/D94.png","","","","[""Non-random"",""Random""]"
"","","","","","html-slider-response","153","548708","0.0-147.0","y8ww4gm1t9","NaN","<div style=""width:500px;"">
                                <p style=""font-size:50px; font-weight:bold;""
                                ></p>
                                <div style=""width:240px; margin: auto;"">
                                    <img src=""images/D76.png"" style= ""width:200px""alt=""img"">
                                </div>
                            </div>","-171","","0","images/D76.png","","","","[""Non-random"",""Random""]"
"","","","","","html-slider-response","154","551451","0.0-148.0","y8ww4gm1t9","NaN","<div style=""width:500px;"">
                                <p style=""font-size:50px; font-weight:bold;""
                                ></p>
                                <div style=""width:240px; margin: auto;"">
                                    <img src=""images/D66.png"" style= ""width:200px""alt=""img"">
                                </div>
                            </div>","-116","","0","images/D66.png","","","","[""Non-random"",""Random""]"
"","","","","","html-slider-response","155","553935","0.0-149.0","y8ww4gm1t9","NaN","<div style=""width:500px;"">
                                <p style=""font-size:50px; font-weight:bold;""
                                ></p>
                                <div style=""width:240px; margin: auto;"">
                                    <img src=""images/D29.png"" style= ""width:200px""alt=""img"">
                                </div>
                            </div>","173","","0","images/D29.png","","","","[""Non-random"",""Random""]"
"","","","","","html-slider-response","156","556336","0.0-150.0","y8ww4gm1t9","NaN","<div style=""width:500px;"">
                                <p style=""font-size:50px; font-weight:bold;""
                                ></p>
                                <div style=""width:240px; margin: auto;"">
                                    <img src=""images/D51.png"" style= ""width:200px""alt=""img"">
                                </div>
                            </div>","-142","","0","images/D51.png","","","","[""Non-random"",""Random""]"
"","","","","","html-slider-response","157","559703","0.0-151.0","y8ww4gm1t9","NaN","<div style=""width:500px;"">
                                <p style=""font-size:50px; font-weight:bold;""
                                ></p>
                                <div style=""width:240px; margin: auto;"">
                                    <img src=""images/D11.png"" style= ""width:200px""alt=""img"">
                                </div>
                            </div>","-190","","0","images/D11.png","","","","[""Non-random"",""Random""]"
"","","","","","html-slider-response","158","562986","0.0-152.0","y8ww4gm1t9","NaN","<div style=""width:500px;"">
                                <p style=""font-size:50px; font-weight:bold;""
                                ></p>
                                <div style=""width:240px; margin: auto;"">
                                    <img src=""images/D65.png"" style= ""width:200px""alt=""img"">
                                </div>
                            </div>","98","","0","images/D65.png","","","","[""Non-random"",""Random""]"
"","","","","","html-slider-response","159","565169","0.0-153.0","y8ww4gm1t9","NaN","<div style=""width:500px;"">
                                <p style=""font-size:50px; font-weight:bold;""
                                ></p>
                                <div style=""width:240px; margin: auto;"">
                                    <img src=""images/D87.png"" style= ""width:200px""alt=""img"">
                                </div>
                            </div>","154","","0","images/D87.png","","","","[""Non-random"",""Random""]"
"","","","","","html-slider-response","160","567919","0.0-154.0","y8ww4gm1t9","NaN","<div style=""width:500px;"">
                                <p style=""font-size:50px; font-weight:bold;""
                                ></p>
                                <div style=""width:240px; margin: auto;"">
                                    <img src=""images/D37.png"" style= ""width:200px""alt=""img"">
                                </div>
                            </div>","89","","0","images/D37.png","","","","[""Non-random"",""Random""]"
"","","","","","html-slider-response","161","569918","0.0-155.0","y8ww4gm1t9","NaN","<div style=""width:500px;"">
                                <p style=""font-size:50px; font-weight:bold;""
                                ></p>
                                <div style=""width:240px; margin: auto;"">
                                    <img src=""images/D83.png"" style= ""width:200px""alt=""img"">
                                </div>
                            </div>","-103","","0","images/D83.png","","","","[""Non-random"",""Random""]"
"","","","","","html-slider-response","162","572353","0.0-156.0","y8ww4gm1t9","NaN","<div style=""width:500px;"">
                                <p style=""font-size:50px; font-weight:bold;""
                                ></p>
                                <div style=""width:240px; margin: auto;"">
                                    <img src=""images/D46.png"" style= ""width:200px""alt=""img"">
                                </div>
                            </div>","-135","","0","images/D46.png","","","","[""Non-random"",""Random""]"
"","","","","","html-slider-response","163","575402","0.0-157.0","y8ww4gm1t9","NaN","<div style=""width:500px;"">
                                <p style=""font-size:50px; font-weight:bold;""
                                ></p>
                                <div style=""width:240px; margin: auto;"">
                                    <img src=""images/D9.png"" style= ""width:200px""alt=""img"">
                                </div>
                            </div>","40","","0","images/D9.png","","","","[""Non-random"",""Random""]"
"","","","","","html-slider-response","164","578436","0.0-158.0","y8ww4gm1t9","NaN","<div style=""width:500px;"">
                                <p style=""font-size:50px; font-weight:bold;""
                                ></p>
                                <div style=""width:240px; margin: auto;"">
                                    <img src=""images/D64.png"" style= ""width:200px""alt=""img"">
                                </div>
                            </div>","-92","","0","images/D64.png","","","","[""Non-random"",""Random""]"
"","","","","","html-slider-response","165","585586","0.0-159.0","y8ww4gm1t9","NaN","<div style=""width:500px;"">
                                <p style=""font-size:50px; font-weight:bold;""
                                ></p>
                                <div style=""width:240px; margin: auto;"">
                                    <img src=""images/D56.png"" style= ""width:200px""alt=""img"">
                                </div>
                            </div>","60","","0","images/D56.png","","","","[""Non-random"",""Random""]"
"","","","","","html-slider-response","166","587836","0.0-160.0","y8ww4gm1t9","NaN","<div style=""width:500px;"">
                                <p style=""font-size:50px; font-weight:bold;""
                                ></p>
                                <div style=""width:240px; margin: auto;"">
                                    <img src=""images/D78.png"" style= ""width:200px""alt=""img"">
                                </div>
                            </div>","-102","","0","images/D78.png","","","","[""Non-random"",""Random""]"
"","","","","","html-slider-response","167","593122","0.0-161.0","y8ww4gm1t9","NaN","<div style=""width:500px;"">
                                <p style=""font-size:50px; font-weight:bold;""
                                ></p>
                                <div style=""width:240px; margin: auto;"">
                                    <img src=""images/D47.png"" style= ""width:200px""alt=""img"">
                                </div>
                            </div>","-58","","0","images/D47.png","","","","[""Non-random"",""Random""]"
"","","","","","html-slider-response","168","595836","0.0-162.0","y8ww4gm1t9","NaN","<div style=""width:500px;"">
                                <p style=""font-size:50px; font-weight:bold;""
                                ></p>
                                <div style=""width:240px; margin: auto;"">
                                    <img src=""images/D26.png"" style= ""width:200px""alt=""img"">
                                </div>
                            </div>","-106","","0","images/D26.png","","","","[""Non-random"",""Random""]"
"","","","","","html-slider-response","169","598735","0.0-163.0","y8ww4gm1t9","NaN","<div style=""width:500px;"">
                                <p style=""font-size:50px; font-weight:bold;""
                                ></p>
                                <div style=""width:240px; margin: auto;"">
                                    <img src=""images/D19.png"" style= ""width:200px""alt=""img"">
                                </div>
                            </div>","70","","0","images/D19.png","","","","[""Non-random"",""Random""]"
"","","","","","html-slider-response","170","601086","0.0-164.0","y8ww4gm1t9","NaN","<div style=""width:500px;"">
                                <p style=""font-size:50px; font-weight:bold;""
                                ></p>
                                <div style=""width:240px; margin: auto;"">
                                    <img src=""images/D53.png"" style= ""width:200px""alt=""img"">
                                </div>
                            </div>","-179","","0","images/D53.png","","","","[""Non-random"",""Random""]"
"","","","","","html-slider-response","171","603173","0.0-165.0","y8ww4gm1t9","NaN","<div style=""width:500px;"">
                                <p style=""font-size:50px; font-weight:bold;""
                                ></p>
                                <div style=""width:240px; margin: auto;"">
                                    <img src=""images/D49.png"" style= ""width:200px""alt=""img"">
                                </div>
                            </div>","-80","","0","images/D49.png","","","","[""Non-random"",""Random""]"
"","","","","","html-slider-response","172","607188","0.0-166.0","y8ww4gm1t9","NaN","<div style=""width:500px;"">
                                <p style=""font-size:50px; font-weight:bold;""
                                ></p>
                                <div style=""width:240px; margin: auto;"">
                                    <img src=""images/D84.png"" style= ""width:200px""alt=""img"">
                                </div>
                            </div>","53","","0","images/D84.png","","","","[""Non-random"",""Random""]"
"","","","","","html-slider-response","173","608885","0.0-167.0","y8ww4gm1t9","NaN","<div style=""width:500px;"">
                                <p style=""font-size:50px; font-weight:bold;""
                                ></p>
                                <div style=""width:240px; margin: auto;"">
                                    <img src=""images/D20.png"" style= ""width:200px""alt=""img"">
                                </div>
                            </div>","-165","","0","images/D20.png","","","","[""Non-random"",""Random""]"
"","","","","","html-slider-response","174","610636","0.0-168.0","y8ww4gm1t9","NaN","<div style=""width:500px;"">
                                <p style=""font-size:50px; font-weight:bold;""
                                ></p>
                                <div style=""width:240px; margin: auto;"">
                                    <img src=""images/D82.png"" style= ""width:200px""alt=""img"">
                                </div>
                            </div>","71","","0","images/D82.png","","","","[""Non-random"",""Random""]"
"","","","","","html-slider-response","175","612469","0.0-169.0","y8ww4gm1t9","NaN","<div style=""width:500px;"">
                                <p style=""font-size:50px; font-weight:bold;""
                                ></p>
                                <div style=""width:240px; margin: auto;"">
                                    <img src=""images/D52.png"" style= ""width:200px""alt=""img"">
                                </div>
                            </div>","26","","0","images/D52.png","","","","[""Non-random"",""Random""]"
"","","","","","html-slider-response","176","615718","0.0-170.0","y8ww4gm1t9","NaN","<div style=""width:500px;"">
                                <p style=""font-size:50px; font-weight:bold;""
                                ></p>
                                <div style=""width:240px; margin: auto;"">
                                    <img src=""images/D24.png"" style= ""width:200px""alt=""img"">
                                </div>
                            </div>","144","","0","images/D24.png","","","","[""Non-random"",""Random""]"
"","","","","","html-slider-response","177","618054","0.0-171.0","y8ww4gm1t9","NaN","<div style=""width:500px;"">
                                <p style=""font-size:50px; font-weight:bold;""
                                ></p>
                                <div style=""width:240px; margin: auto;"">
                                    <img src=""images/D103.png"" style= ""width:200px""alt=""img"">
                                </div>
                            </div>","116","","0","images/D103.png","","","","[""Non-random"",""Random""]"
"","","","","","html-slider-response","178","619536","0.0-172.0","y8ww4gm1t9","NaN","<div style=""width:500px;"">
                                <p style=""font-size:50px; font-weight:bold;""
                                ></p>
                                <div style=""width:240px; margin: auto;"">
                                    <img src=""images/D3.png"" style= ""width:200px""alt=""img"">
                                </div>
                            </div>","157","","0","images/D3.png","","","","[""Non-random"",""Random""]"
"","","","","","html-slider-response","179","621402","0.0-173.0","y8ww4gm1t9","NaN","<div style=""width:500px;"">
                                <p style=""font-size:50px; font-weight:bold;""
                                ></p>
                                <div style=""width:240px; margin: auto;"">
                                    <img src=""images/D4.png"" style= ""width:200px""alt=""img"">
                                </div>
                            </div>","58","","0","images/D4.png","","","","[""Non-random"",""Random""]"
"","","","","","html-slider-response","180","623019","0.0-174.0","y8ww4gm1t9","NaN","<div style=""width:500px;"">
                                <p style=""font-size:50px; font-weight:bold;""
                                ></p>
                                <div style=""width:240px; margin: auto;"">
                                    <img src=""images/D77.png"" style= ""width:200px""alt=""img"">
                                </div>
                            </div>","-114","","0","images/D77.png","","","","[""Non-random"",""Random""]"
"","","","","","html-slider-response","181","625135","0.0-175.0","y8ww4gm1t9","NaN","<div style=""width:500px;"">
                                <p style=""font-size:50px; font-weight:bold;""
                                ></p>
                                <div style=""width:240px; margin: auto;"">
                                    <img src=""images/D21.png"" style= ""width:200px""alt=""img"">
                                </div>
                            </div>","-152","","0","images/D21.png","","","","[""Non-random"",""Random""]"
"","","","","","html-slider-response","182","627054","0.0-176.0","y8ww4gm1t9","NaN","<div style=""width:500px;"">
                                <p style=""font-size:50px; font-weight:bold;""
                                ></p>
                                <div style=""width:240px; margin: auto;"">
                                    <img src=""images/D80.png"" style= ""width:200px""alt=""img"">
                                </div>
                            </div>","97","","0","images/D80.png","","","","[""Non-random"",""Random""]"
"","","","","","html-slider-response","183","630520","0.0-177.0","y8ww4gm1t9","NaN","<div style=""width:500px;"">
                                <p style=""font-size:50px; font-weight:bold;""
                                ></p>
                                <div style=""width:240px; margin: auto;"">
                                    <img src=""images/D6.png"" style= ""width:200px""alt=""img"">
                                </div>
                            </div>","25","","0","images/D6.png","","","","[""Non-random"",""Random""]"
"","","","","","html-slider-response","184","634354","0.0-178.0","y8ww4gm1t9","NaN","<div style=""width:500px;"">
                                <p style=""font-size:50px; font-weight:bold;""
                                ></p>
                                <div style=""width:240px; margin: auto;"">
                                    <img src=""images/D55.png"" style= ""width:200px""alt=""img"">
                                </div>
                            </div>","20","","0","images/D55.png","","","","[""Non-random"",""Random""]"
"","","","","","html-slider-response","185","636137","0.0-179.0","y8ww4gm1t9","NaN","<div style=""width:500px;"">
                                <p style=""font-size:50px; font-weight:bold;""
                                ></p>
                                <div style=""width:240px; margin: auto;"">
                                    <img src=""images/D25.png"" style= ""width:200px""alt=""img"">
                                </div>
                            </div>","162","","0","images/D25.png","","","","[""Non-random"",""Random""]"
"","","","","","html-slider-response","186","637852","0.0-180.0","y8ww4gm1t9","NaN","<div style=""width:500px;"">
                                <p style=""font-size:50px; font-weight:bold;""
                                ></p>
                                <div style=""width:240px; margin: auto;"">
                                    <img src=""images/D96.png"" style= ""width:200px""alt=""img"">
                                </div>
                            </div>","155","","0","images/D96.png","","","","[""Non-random"",""Random""]"
"","","","","","html-slider-response","187","640802","0.0-181.0","y8ww4gm1t9","NaN","<div style=""width:500px;"">
                                <p style=""font-size:50px; font-weight:bold;""
                                ></p>
                                <div style=""width:240px; margin: auto;"">
                                    <img src=""images/D106.png"" style= ""width:200px""alt=""img"">
                                </div>
                            </div>","-102","","0","images/D106.png","","","","[""Non-random"",""Random""]"
"","","","","","html-slider-response","188","642685","0.0-182.0","y8ww4gm1t9","NaN","<div style=""width:500px;"">
