"success","timeout","failed_images","failed_audio","failed_video","trial_type","trial_index","time_elapsed","internal_node_id","subject_id","rt","stimulus","response","question_order","slider_start","image_path","practiceTrial","practiceTrialNum","correct","slider_labels"
"true","false","[]","[]","[]","preload","0","135","0.0-0.0","zf3pb4n3kv","","","","","","","","","",""
"","","","","","html-button-response","1","2008","0.0-1.0","zf3pb4n3kv","1871","<div style='text-align:center; font-size:20px; line-height:25px; width: 1200px;'>
                Welcome to our experiment! <br>
                <br>At the bottom of this screen, you will see a button that says 'Begin Experiment.
                <br>Please only click that button when you are ready to complete the 25 minute experiment in one sitting. <br>
                <br> Once you click that button, it will not be possible to restart the experiment. <br><br>","0","","","","","","",""
"true","","","","","fullscreen","2","4836","0.0-2.0","zf3pb4n3kv","1809","","","","","","","","",""
"","","","","","survey-multi-select","3","11098","0.0-3.0","zf3pb4n3kv","6255","","{""Consent"":[""<strong>I consent</strong>""]}","[0]","","","","","",""
"","","","","","html-button-response","4","13220","0.0-4.0","zf3pb4n3kv","2120","Welcome! <p> This experiment involves two parts: demographic information, followed by the experimental task.<p> It will take about 25 minutes to complete both parts.","0","","","","","","",""
"","","","","","survey-text","5","22088","0.0-5.0","zf3pb4n3kv","8865","","{""Age"":""20"",""Gender"":""female"",""Race/ethnicity"":""asian""}","","","","","","",""
"","","","","","html-slider-response","6","31015","0.0-6.0","zf3pb4n3kv","8925","
                <div style='text-align:center; height: auto; margin-left=-100px; margin-bottom: -20px; font-size:20px; line-height:5px; width: 1200px;'>
                    <br>During this experiment, you will see a series of textures, one at a time, like the ones below: 
                </div>
                    <br>
                    <br>
                    <img src=""anchoring_visual_textures.png"" alt=""img"" style=""max-width:1200px; margin-left: -10px;"">
                </div>
                <div style=""clear: both;""></div>
                </div>
                    <div style='text-align:center; margin-left=-100px; font-size:20px; line-height:20px; width: 1200px; margin-top: -50px;'>
                    
                    <br> For each texture, you will be asked to rate where you think it falls on each of the response scales with the following endpoints:
                    </div>
                            <div style=""text-align: center; width: 1400px; "">
                                <p style=""font-size:20px; line-height:5px; ""><b>Blobby</b> versus <b>Stripey</b></p>
                                <p style=""font-size:20px; line-height:5px; ""><b>Rounded</b> versus <b>Rectangular</b></p>
                                <p style=""font-size:20px;line-height:5px;""><b>Coarse</b> versus <b>Fine</b></p>
                                <p style=""font-size:20px;line-height:5px; ""><b>Rough</b> versus <b>Smooth</b></p>
                                <p style=""font-size:20px;line-height:5px; ""><b>Random</b> versus <b>Non-Random</b></p>
                                <p style=""font-size:20px;line-height:5px;""><b>Hard</b> versus <b>Soft</b></p>
                            </div>
                            <div style='text-align:center; font-size:20px; line-height:20px; width: 1400px;'>
                    
                    Each trial will include one texture and one response scale. You will be asked to make your rating by sliding the cursor along a slider response scale like the one below.
                    <br><br> Before beginning, please look at the textures and scales. For each scale, think about the texture you associate most with the left endpoint. When you see that texture for that response scale, please click near the left of the scale.
                    <br><br> Now, please think about the texture you associate most with the right endpoint of each scale. When you see that texture for that response scale, please click near the right of the scale. 
                    <br><br> If you think a texture is not strongly associated with either endpoint of the scale, please click near the midpoint of the scale. Please use the full range of the scale. 
                    <br><br> You will be asked to rate each texture for a given scale before moving on to the next scale.
                    <br><br> Please press the 'Continue' button for instructions on how to use the slider.                     <br><br>
                ","null","","0","visual_textures_anchoring.png","true","","",""
"","","","","","html-button-response","7","32315","0.0-7.0","zf3pb4n3kv","1299","<div style=""width:1200px; margin-top:-150px;""><p style=""text-align:center; font-size:24px;"">To move the slider, click and drag your cursor to the location of the scale where you would like to make your rating and then let go. <br><br> When you let go of the slider, your response will be recorded and the next trial will begin. <br><br><br>
                We are interested in your initial impressions of each texture and scale, so please go with your first intuition. <br><br>
                Before you begin the experiment, there will be four training trials for you to practice using the scale. <br><br><br><br></div>
                <div style=""width:1200px;""><p style=""text-align:center; font-size:20px;"">When you are ready to start the training trials, please click ""Continue"".</p></div>","0","","","","","","",""
"","","","","","html-slider-response","8","33905","0.0-8.0-0.0","zf3pb4n3kv","NaN","<div style=""width:500px;"">
                                <p style=""font-size:25px;"">Please move the slider all the way to the <br> right endpoint of the scale</p>

                                </div>
                            </div>","-43","","0","","true","0","false",""
"","","","","","html-button-response","9","35214","0.0-8.0-1.0","zf3pb4n3kv","800","<p align='center'><b>Not quite!</b> The slider was not placed near the instructed locattion. Click on 'Continue' to try again. </p>","0","","","","","","",""
"","","","","","html-slider-response","10","38214","0.0-8.1-0.1","zf3pb4n3kv","NaN","<div style=""width:500px;"">
                                <p style=""font-size:25px;"">Please move the slider all the way to the <br> right endpoint of the scale</p>

                                </div>
                            </div>","199","","0","","true","0","true",""
"","","","","","html-button-response","11","39863","0.0-8.1-1.1","zf3pb4n3kv","1143","<p align='center'><b>Good job!</b> Click on 'Continue' to proceed.</p>","0","","","","","","",""
"","","","","","html-slider-response","12","41351","0.0-9.0-0.0","zf3pb4n3kv","NaN","<div style=""width:500px;"">
                                <p style=""font-size:25px;"">Please move the slider all the way to the <br> left endpoint of the scale</p>

                                </div>
                            </div>","-197","","0","","true","1","true",""
"","","","","","html-button-response","13","42895","0.0-9.0-1.0","zf3pb4n3kv","1037","<p align='center'><b>Good job!</b> Click on 'Continue' to proceed.</p>","0","","","","","","",""
"","","","","","html-slider-response","14","51250","0.0-10.0-0.0","zf3pb4n3kv","NaN","<div style=""width:500px;"">
                                <p style=""font-size:25px;"">Please move the slider halfway between the center and right endpoint of the scale</p>

                                </div>
                            </div>","101","","0","","true","2","true",""
"","","","","","html-button-response","15","52389","0.0-10.0-1.0","zf3pb4n3kv","627","<p align='center'><b>Good job!</b> Click on 'Continue' to proceed.</p>","0","","","","","","",""
"","","","","","html-slider-response","16","53953","0.0-11.0-0.0","zf3pb4n3kv","NaN","<div style=""width:500px;"">
                                <p style=""font-size:25px;"">Please move the slider halfway between the center and left endpoint of the scale</p>

                                </div>
                            </div>","-102","","0","","true","3","true",""
"","","","","","html-button-response","17","55261","0.0-11.0-1.0","zf3pb4n3kv","806","<p align='center'><b>Good job!</b> Click on 'Continue' to proceed.</p>","0","","","","","","",""
"","","","","","html-button-response","18","55952","0.0-12.0","zf3pb4n3kv","690","<div style=""width:800px; margin-top:-300px;""><p style=""text-align:center; font-size:22px; line-height:25px;""""> Great job! You've completed the practice trials.</div>
                     <div style=""width:800px; margin-top:-20px;""><p style=""text-align:center""><br><br> In the following trials, you will be asked to rate textures on each scale one-by-one. <br> You will be given opportunities to take breaks when you have completed each block of trials. There are six total blocks of trials. <br><br> Please click continue to begin the main task.<br><br><br> </div>","0","","","","","","",""
"","","","","","html-button-response","19","56756","0.0-13.0","zf3pb4n3kv","803","In the following trials, you will be asked to rate textures on the scale <b>Blobby</b> versus <b>Stripey</b>. Please click 'Continue' when you are ready proceed.","0","","","","","","",""
"","","","","","html-slider-response","20","59127","0.0-14.0","zf3pb4n3kv","NaN","<div style=""width:500px;"">
                                <p style=""font-size:50px; font-weight:bold;""
                                ></p>
                                <div style=""width:240px; margin: auto;"">
                                    <img src=""images/D83.png"" style= ""width:200px""alt=""img"">
                                </div>
                            </div>","152","","0","images/D83.png","","","","[""Blobby"",""Stripey""]"
"","","","","","html-slider-response","21","61440","0.0-15.0","zf3pb4n3kv","NaN","<div style=""width:500px;"">
                                <p style=""font-size:50px; font-weight:bold;""
                                ></p>
                                <div style=""width:240px; margin: auto;"">
                                    <img src=""images/D77.png"" style= ""width:200px""alt=""img"">
                                </div>
                            </div>","3","","0","images/D77.png","","","","[""Blobby"",""Stripey""]"
"","","","","","html-slider-response","22","63280","0.0-16.0","zf3pb4n3kv","NaN","<div style=""width:500px;"">
                                <p style=""font-size:50px; font-weight:bold;""
                                ></p>
                                <div style=""width:240px; margin: auto;"">
                                    <img src=""images/D57.png"" style= ""width:200px""alt=""img"">
                                </div>
                            </div>","-58","","0","images/D57.png","","","","[""Blobby"",""Stripey""]"
"","","","","","html-slider-response","23","65790","0.0-17.0","zf3pb4n3kv","NaN","<div style=""width:500px;"">
                                <p style=""font-size:50px; font-weight:bold;""
                                ></p>
                                <div style=""width:240px; margin: auto;"">
                                    <img src=""images/D92.png"" style= ""width:200px""alt=""img"">
                                </div>
                            </div>","-49","","0","images/D92.png","","","","[""Blobby"",""Stripey""]"
"","","","","","html-slider-response","24","67882","0.0-18.0","zf3pb4n3kv","NaN","<div style=""width:500px;"">
                                <p style=""font-size:50px; font-weight:bold;""
                                ></p>
                                <div style=""width:240px; margin: auto;"">
                                    <img src=""images/D85.png"" style= ""width:200px""alt=""img"">
                                </div>
                            </div>","194","","0","images/D85.png","","","","[""Blobby"",""Stripey""]"
"","","","","","html-slider-response","25","69506","0.0-19.0","zf3pb4n3kv","NaN","<div style=""width:500px;"">
                                <p style=""font-size:50px; font-weight:bold;""
                                ></p>
                                <div style=""width:240px; margin: auto;"">
                                    <img src=""images/D35.png"" style= ""width:200px""alt=""img"">
                                </div>
                            </div>","-159","","0","images/D35.png","","","","[""Blobby"",""Stripey""]"
"","","","","","html-slider-response","26","71105","0.0-20.0","zf3pb4n3kv","NaN","<div style=""width:500px;"">
                                <p style=""font-size:50px; font-weight:bold;""
                                ></p>
                                <div style=""width:240px; margin: auto;"">
                                    <img src=""images/D56.png"" style= ""width:200px""alt=""img"">
                                </div>
                            </div>","-57","","0","images/D56.png","","","","[""Blobby"",""Stripey""]"
"","","","","","html-slider-response","27","72351","0.0-21.0","zf3pb4n3kv","NaN","<div style=""width:500px;"">
                                <p style=""font-size:50px; font-weight:bold;""
                                ></p>
                                <div style=""width:240px; margin: auto;"">
                                    <img src=""images/D53.png"" style= ""width:200px""alt=""img"">
                                </div>
                            </div>","-121","","0","images/D53.png","","","","[""Blobby"",""Stripey""]"
"","","","","","html-slider-response","28","73373","0.0-22.0","zf3pb4n3kv","NaN","<div style=""width:500px;"">
                                <p style=""font-size:50px; font-weight:bold;""
                                ></p>
                                <div style=""width:240px; margin: auto;"">
                                    <img src=""images/D29.png"" style= ""width:200px""alt=""img"">
                                </div>
                            </div>","-121","","0","images/D29.png","","","","[""Blobby"",""Stripey""]"
"","","","","","html-slider-response","29","74359","0.0-23.0","zf3pb4n3kv","NaN","<div style=""width:500px;"">
                                <p style=""font-size:50px; font-weight:bold;""
                                ></p>
                                <div style=""width:240px; margin: auto;"">
                                    <img src=""images/D4.png"" style= ""width:200px""alt=""img"">
                                </div>
                            </div>","-121","","0","images/D4.png","","","","[""Blobby"",""Stripey""]"
"","","","","","html-slider-response","30","75464","0.0-24.0","zf3pb4n3kv","NaN","<div style=""width:500px;"">
                                <p style=""font-size:50px; font-weight:bold;""
                                ></p>
                                <div style=""width:240px; margin: auto;"">
                                    <img src=""images/D19.png"" style= ""width:200px""alt=""img"">
                                </div>
                            </div>","-121","","0","images/D19.png","","","","[""Blobby"",""Stripey""]"
"","","","","","html-slider-response","31","77591","0.0-25.0","zf3pb4n3kv","NaN","<div style=""width:500px;"">
                                <p style=""font-size:50px; font-weight:bold;""
                                ></p>
                                <div style=""width:240px; margin: auto;"">
                                    <img src=""images/D87.png"" style= ""width:200px""alt=""img"">
                                </div>
                            </div>","12","","0","images/D87.png","","","","[""Blobby"",""Stripey""]"
"","","","","","html-slider-response","32","79456","0.0-26.0","zf3pb4n3kv","NaN","<div style=""width:500px;"">
                                <p style=""font-size:50px; font-weight:bold;""
                                ></p>
                                <div style=""width:240px; margin: auto;"">
                                    <img src=""images/D84.png"" style= ""width:200px""alt=""img"">
                                </div>
                            </div>","40","","0","images/D84.png","","","","[""Blobby"",""Stripey""]"
"","","","","","html-slider-response","33","82467","0.0-27.0","zf3pb4n3kv","NaN","<div style=""width:500px;"">
                                <p style=""font-size:50px; font-weight:bold;""
                                ></p>
                                <div style=""width:240px; margin: auto;"">
                                    <img src=""images/D102.png"" style= ""width:200px""alt=""img"">
                                </div>
                            </div>","1","","0","images/D102.png","","","","[""Blobby"",""Stripey""]"
"","","","","","html-slider-response","34","85245","0.0-28.0","zf3pb4n3kv","NaN","<div style=""width:500px;"">
                                <p style=""font-size:50px; font-weight:bold;""
                                ></p>
                                <div style=""width:240px; margin: auto;"">
                                    <img src=""images/D32.png"" style= ""width:200px""alt=""img"">
                                </div>
                            </div>","-122","","0","images/D32.png","","","","[""Blobby"",""Stripey""]"
"","","","","","html-slider-response","35","87071","0.0-29.0","zf3pb4n3kv","NaN","<div style=""width:500px;"">
                                <p style=""font-size:50px; font-weight:bold;""
                                ></p>
                                <div style=""width:240px; margin: auto;"">
                                    <img src=""images/D48.png"" style= ""width:200px""alt=""img"">
                                </div>
                            </div>","-158","","0","images/D48.png","","","","[""Blobby"",""Stripey""]"
"","","","","","html-slider-response","36","88100","0.0-30.0","zf3pb4n3kv","NaN","<div style=""width:500px;"">
                                <p style=""font-size:50px; font-weight:bold;""
                                ></p>
                                <div style=""width:240px; margin: auto;"">
                                    <img src=""images/D80.png"" style= ""width:200px""alt=""img"">
                                </div>
                            </div>","-153","","0","images/D80.png","","","","[""Blobby"",""Stripey""]"
"","","","","","html-slider-response","37","89057","0.0-31.0","zf3pb4n3kv","NaN","<div style=""width:500px;"">
                                <p style=""font-size:50px; font-weight:bold;""
                                ></p>
                                <div style=""width:240px; margin: auto;"">
                                    <img src=""images/D3.png"" style= ""width:200px""alt=""img"">
                                </div>
                            </div>","-141","","0","images/D3.png","","","","[""Blobby"",""Stripey""]"
"","","","","","html-slider-response","38","90232","0.0-32.0","zf3pb4n3kv","NaN","<div style=""width:500px;"">
                                <p style=""font-size:50px; font-weight:bold;""
                                ></p>
                                <div style=""width:240px; margin: auto;"">
                                    <img src=""images/D24.png"" style= ""width:200px""alt=""img"">
                                </div>
                            </div>","-142","","0","images/D24.png","","","","[""Blobby"",""Stripey""]"
"","","","","","html-slider-response","39","92101","0.0-33.0","zf3pb4n3kv","NaN","<div style=""width:500px;"">
                                <p style=""font-size:50px; font-weight:bold;""
                                ></p>
                                <div style=""width:240px; margin: auto;"">
                                    <img src=""images/D17.png"" style= ""width:200px""alt=""img"">
                                </div>
                            </div>","184","","0","images/D17.png","","","","[""Blobby"",""Stripey""]"
"","","","","","html-slider-response","40","94232","0.0-34.0","zf3pb4n3kv","NaN","<div style=""width:500px;"">
                                <p style=""font-size:50px; font-weight:bold;""
                                ></p>
                                <div style=""width:240px; margin: auto;"">
                                    <img src=""images/D18.png"" style= ""width:200px""alt=""img"">
                                </div>
                            </div>","-127","","0","images/D18.png","","","","[""Blobby"",""Stripey""]"
"","","","","","html-slider-response","41","95498","0.0-35.0","zf3pb4n3kv","NaN","<div style=""width:500px;"">
                                <p style=""font-size:50px; font-weight:bold;""
                                ></p>
                                <div style=""width:240px; margin: auto;"">
                                    <img src=""images/D101.png"" style= ""width:200px""alt=""img"">
                                </div>
                            </div>","-127","","0","images/D101.png","","","","[""Blobby"",""Stripey""]"
"","","","","","html-slider-response","42","98123","0.0-36.0","zf3pb4n3kv","NaN","<div style=""width:500px;"">
                                <p style=""font-size:50px; font-weight:bold;""
                                ></p>
                                <div style=""width:240px; margin: auto;"">
                                    <img src=""images/D96.png"" style= ""width:200px""alt=""img"">
                                </div>
                            </div>","2","","0","images/D96.png","","","","[""Blobby"",""Stripey""]"
"","","","","","html-slider-response","43","99468","0.0-37.0","zf3pb4n3kv","NaN","<div style=""width:500px;"">
                                <p style=""font-size:50px; font-weight:bold;""
                                ></p>
                                <div style=""width:240px; margin: auto;"">
                                    <img src=""images/D64.png"" style= ""width:200px""alt=""img"">
                                </div>
                            </div>","2","","0","images/D64.png","","","","[""Blobby"",""Stripey""]"
"","","","","","html-slider-response","44","101654","0.0-38.0","zf3pb4n3kv","NaN","<div style=""width:500px;"">
                                <p style=""font-size:50px; font-weight:bold;""
                                ></p>
                                <div style=""width:240px; margin: auto;"">
                                    <img src=""images/D55.png"" style= ""width:200px""alt=""img"">
                                </div>
                            </div>","-22","","0","images/D55.png","","","","[""Blobby"",""Stripey""]"
"","","","","","html-slider-response","45","103874","0.0-39.0","zf3pb4n3kv","NaN","<div style=""width:500px;"">
                                <p style=""font-size:50px; font-weight:bold;""
                                ></p>
                                <div style=""width:240px; margin: auto;"">
                                    <img src=""images/D103.png"" style= ""width:200px""alt=""img"">
                                </div>
                            </div>","-100","","0","images/D103.png","","","","[""Blobby"",""Stripey""]"
"","","","","","html-slider-response","46","107255","0.0-40.0","zf3pb4n3kv","NaN","<div style=""width:500px;"">
                                <p style=""font-size:50px; font-weight:bold;""
                                ></p>
                                <div style=""width:240px; margin: auto;"">
                                    <img src=""images/D6.png"" style= ""width:200px""alt=""img"">
                                </div>
                            </div>","-100","","0","images/D6.png","","","","[""Blobby"",""Stripey""]"
"","","","","","html-slider-response","47","108447","0.0-41.0","zf3pb4n3kv","NaN","<div style=""width:500px;"">
                                <p style=""font-size:50px; font-weight:bold;""
                                ></p>
                                <div style=""width:240px; margin: auto;"">
                                    <img src=""images/D75.png"" style= ""width:200px""alt=""img"">
                                </div>
                            </div>","-94","","0","images/D75.png","","","","[""Blobby"",""Stripey""]"
"","","","","","html-slider-response","48","109420","0.0-42.0","zf3pb4n3kv","NaN","<div style=""width:500px;"">
                                <p style=""font-size:50px; font-weight:bold;""
                                ></p>
                                <div style=""width:240px; margin: auto;"">
                                    <img src=""images/D78.png"" style= ""width:200px""alt=""img"">
                                </div>
                            </div>","-87","","0","images/D78.png","","","","[""Blobby"",""Stripey""]"
"","","","","","html-slider-response","49","110789","0.0-43.0","zf3pb4n3kv","NaN","<div style=""width:500px;"">
                                <p style=""font-size:50px; font-weight:bold;""
                                ></p>
                                <div style=""width:240px; margin: auto;"">
                                    <img src=""images/D66.png"" style= ""width:200px""alt=""img"">
                                </div>
                            </div>","-83","","0","images/D66.png","","","","[""Blobby"",""Stripey""]"
"","","","","","html-slider-response","50","111942","0.0-44.0","zf3pb4n3kv","NaN","<div style=""width:500px;"">
                                <p style=""font-size:50px; font-weight:bold;""
                                ></p>
                                <div style=""width:240px; margin: auto;"">
                                    <img src=""images/D111.png"" style= ""width:200px""alt=""img"">
                                </div>
                            </div>","-42","","0","images/D111.png","","","","[""Blobby"",""Stripey""]"
"","","","","","html-slider-response","51","113135","0.0-45.0","zf3pb4n3kv","NaN","<div style=""width:500px;"">
                                <p style=""font-size:50px; font-weight:bold;""
                                ></p>
                                <div style=""width:240px; margin: auto;"">
                                    <img src=""images/D74.png"" style= ""width:200px""alt=""img"">
                                </div>
                            </div>","-42","","0","images/D74.png","","","","[""Blobby"",""Stripey""]"
"","","","","","html-slider-response","52","115294","0.0-46.0","zf3pb4n3kv","NaN","<div style=""width:500px;"">
                                <p style=""font-size:50px; font-weight:bold;""
                                ></p>
                                <div style=""width:240px; margin: auto;"">
                                    <img src=""images/D26.png"" style= ""width:200px""alt=""img"">
                                </div>
                            </div>","2","","0","images/D26.png","","","","[""Blobby"",""Stripey""]"
"","","","","","html-slider-response","53","116841","0.0-47.0","zf3pb4n3kv","NaN","<div style=""width:500px;"">
                                <p style=""font-size:50px; font-weight:bold;""
                                ></p>
                                <div style=""width:240px; margin: auto;"">
                                    <img src=""images/D16.png"" style= ""width:200px""alt=""img"">
                                </div>
                            </div>","89","","0","images/D16.png","","","","[""Blobby"",""Stripey""]"
"","","","","","html-slider-response","54","118643","0.0-48.0","zf3pb4n3kv","NaN","<div style=""width:500px;"">
                                <p style=""font-size:50px; font-weight:bold;""
                                ></p>
                                <div style=""width:240px; margin: auto;"">
                                    <img src=""images/D34.png"" style= ""width:200px""alt=""img"">
                                </div>
                            </div>","-43","","0","images/D34.png","","","","[""Blobby"",""Stripey""]"
"","","","","","html-slider-response","55","120172","0.0-49.0","zf3pb4n3kv","NaN","<div style=""width:500px;"">
                                <p style=""font-size:50px; font-weight:bold;""
                                ></p>
                                <div style=""width:240px; margin: auto;"">
                                    <img src=""images/D79.png"" style= ""width:200px""alt=""img"">
                                </div>
                            </div>","54","","0","images/D79.png","","","","[""Blobby"",""Stripey""]"
"","","","","","html-slider-response","56","121636","0.0-50.0","zf3pb4n3kv","NaN","<div style=""width:500px;"">
                                <p style=""font-size:50px; font-weight:bold;""
                                ></p>
                                <div style=""width:240px; margin: auto;"">
                                    <img src=""images/D82.png"" style= ""width:200px""alt=""img"">
                                </div>
                            </div>","-37","","0","images/D82.png","","","","[""Blobby"",""Stripey""]"
"","","","","","html-slider-response","57","122854","0.0-51.0","zf3pb4n3kv","NaN","<div style=""width:500px;"">
                                <p style=""font-size:50px; font-weight:bold;""
                                ></p>
                                <div style=""width:240px; margin: auto;"">
                                    <img src=""images/D47.png"" style= ""width:200px""alt=""img"">
                                </div>
                            </div>","46","","0","images/D47.png","","","","[""Blobby"",""Stripey""]"
"","","","","","html-slider-response","58","124104","0.0-52.0","zf3pb4n3kv","NaN","<div style=""width:500px;"">
                                <p style=""font-size:50px; font-weight:bold;""
                                ></p>
                                <div style=""width:240px; margin: auto;"">
                                    <img src=""images/D36.png"" style= ""width:200px""alt=""img"">
                                </div>
                            </div>","-27","","0","images/D36.png","","","","[""Blobby"",""Stripey""]"
"","","","","","html-slider-response","59","125330","0.0-53.0","zf3pb4n3kv","NaN","<div style=""width:500px;"">
                                <p style=""font-size:50px; font-weight:bold;""
                                ></p>
                                <div style=""width:240px; margin: auto;"">
                                    <img src=""images/D49.png"" style= ""width:200px""alt=""img"">
                                </div>
                            </div>","26","","0","images/D49.png","","","","[""Blobby"",""Stripey""]"
"","","","","","html-slider-response","60","126418","0.0-54.0","zf3pb4n3kv","NaN","<div style=""width:500px;"">
                                <p style=""font-size:50px; font-weight:bold;""
                                ></p>
                                <div style=""width:240px; margin: auto;"">
                                    <img src=""images/D76.png"" style= ""width:200px""alt=""img"">
                                </div>
                            </div>","-23","","0","images/D76.png","","","","[""Blobby"",""Stripey""]"
"","","","","","html-slider-response","61","127692","0.0-55.0","zf3pb4n3kv","NaN","<div style=""width:500px;"">
                                <p style=""font-size:50px; font-weight:bold;""
                                ></p>
                                <div style=""width:240px; margin: auto;"">
                                    <img src=""images/D20.png"" style= ""width:200px""alt=""img"">
                                </div>
                            </div>","32","","0","images/D20.png","","","","[""Blobby"",""Stripey""]"
"","","","","","html-slider-response","62","129106","0.0-56.0","zf3pb4n3kv","NaN","<div style=""width:500px;"">
                                <p style=""font-size:50px; font-weight:bold;""
                                ></p>
                                <div style=""width:240px; margin: auto;"">
                                    <img src=""images/D46.png"" style= ""width:200px""alt=""img"">
                                </div>
                            </div>","32","","0","images/D46.png","","","","[""Blobby"",""Stripey""]"
"","","","","","html-slider-response","63","130553","0.0-57.0","zf3pb4n3kv","NaN","<div style=""width:500px;"">
                                <p style=""font-size:50px; font-weight:bold;""
                                ></p>
                                <div style=""width:240px; margin: auto;"">
                                    <img src=""images/D81.png"" style= ""width:200px""alt=""img"">
                                </div>
                            </div>","-84","","0","images/D81.png","","","","[""Blobby"",""Stripey""]"
"","","","","","html-slider-response","64","132469","0.0-58.0","zf3pb4n3kv","NaN","<div style=""width:500px;"">
                                <p style=""font-size:50px; font-weight:bold;""
                                ></p>
                                <div style=""width:240px; margin: auto;"">
                                    <img src=""images/D1.png"" style= ""width:200px""alt=""img"">
                                </div>
                            </div>","-29","","0","images/D1.png","","","","[""Blobby"",""Stripey""]"
"","","","","","html-slider-response","65","133594","0.0-59.0","zf3pb4n3kv","NaN","<div style=""width:500px;"">
                                <p style=""font-size:50px; font-weight:bold;""
                                ></p>
                                <div style=""width:240px; margin: auto;"">
                                    <img src=""images/D22.png"" style= ""width:200px""alt=""img"">
                                </div>
                            </div>","-29","","0","images/D22.png","","","","[""Blobby"",""Stripey""]"
"","","","","","html-slider-response","66","135335","0.0-60.0","zf3pb4n3kv","NaN","<div style=""width:500px;"">
                                <p style=""font-size:50px; font-weight:bold;""
                                ></p>
                                <div style=""width:240px; margin: auto;"">
                                    <img src=""images/D25.png"" style= ""width:200px""alt=""img"">
                                </div>
                            </div>","7","","0","images/D25.png","","","","[""Blobby"",""Stripey""]"
"","","","","","html-slider-response","67","136448","0.0-61.0","zf3pb4n3kv","NaN","<div style=""width:500px;"">
                                <p style=""font-size:50px; font-weight:bold;""
                                ></p>
                                <div style=""width:240px; margin: auto;"">
                                    <img src=""images/D68.png"" style= ""width:200px""alt=""img"">
                                </div>
                            </div>","6","","0","images/D68.png","","","","[""Blobby"",""Stripey""]"
"","","","","","html-slider-response","68","137917","0.0-62.0","zf3pb4n3kv","NaN","<div style=""width:500px;"">
                                <p style=""font-size:50px; font-weight:bold;""
                                ></p>
                                <div style=""width:240px; margin: auto;"">
                                    <img src=""images/D104.png"" style= ""width:200px""alt=""img"">
                                </div>
                            </div>","-22","","0","images/D104.png","","","","[""Blobby"",""Stripey""]"
"","","","","","html-slider-response","69","139458","0.0-63.0","zf3pb4n3kv","NaN","<div style=""width:500px;"">
                                <p style=""font-size:50px; font-weight:bold;""
                                ></p>
                                <div style=""width:240px; margin: auto;"">
                                    <img src=""images/D11.png"" style= ""width:200px""alt=""img"">
                                </div>
                            </div>","24","","0","images/D11.png","","","","[""Blobby"",""Stripey""]"
"","","","","","html-slider-response","70","140913","0.0-64.0","zf3pb4n3kv","NaN","<div style=""width:500px;"">
                                <p style=""font-size:50px; font-weight:bold;""
                                ></p>
                                <div style=""width:240px; margin: auto;"">
                                    <img src=""images/D14.png"" style= ""width:200px""alt=""img"">
                                </div>
                            </div>","-13","","0","images/D14.png","","","","[""Blobby"",""Stripey""]"
"","","","","","html-slider-response","71","142096","0.0-65.0","zf3pb4n3kv","NaN","<div style=""width:500px;"">
                                <p style=""font-size:50px; font-weight:bold;""
                                ></p>
                                <div style=""width:240px; margin: auto;"">
                                    <img src=""images/D106.png"" style= ""width:200px""alt=""img"">
                                </div>
                            </div>","23","","0","images/D106.png","","","","[""Blobby"",""Stripey""]"
"","","","","","html-slider-response","72","143152","0.0-66.0","zf3pb4n3kv","NaN","<div style=""width:500px;"">
                                <p style=""font-size:50px; font-weight:bold;""
                                ></p>
                                <div style=""width:240px; margin: auto;"">
                                    <img src=""images/D9.png"" style= ""width:200px""alt=""img"">
                                </div>
                            </div>","-26","","0","images/D9.png","","","","[""Blobby"",""Stripey""]"
"","","","","","html-slider-response","73","144547","0.0-67.0","zf3pb4n3kv","NaN","<div style=""width:500px;"">
                                <p style=""font-size:50px; font-weight:bold;""
                                ></p>
                                <div style=""width:240px; margin: auto;"">
                                    <img src=""images/D105.png"" style= ""width:200px""alt=""img"">
                                </div>
                            </div>","46","","0","images/D105.png","","","","[""Blobby"",""Stripey""]"
"","","","","","html-slider-response","74","145487","0.0-68.0","zf3pb4n3kv","NaN","<div style=""width:500px;"">
                                <p style=""font-size:50px; font-weight:bold;""
                                ></p>
                                <div style=""width:240px; margin: auto;"">
                                    <img src=""images/D37.png"" style= ""width:200px""alt=""img"">
                                </div>
                            </div>","-47","","0","images/D37.png","","","","[""Blobby"",""Stripey""]"
"","","","","","html-slider-response","75","146886","0.0-69.0","zf3pb4n3kv","NaN","<div style=""width:500px;"">
                                <p style=""font-size:50px; font-weight:bold;""
                                ></p>
                                <div style=""width:240px; margin: auto;"">
                                    <img src=""images/D95.png"" style= ""width:200px""alt=""img"">
                                </div>
                            </div>","-58","","0","images/D95.png","","","","[""Blobby"",""Stripey""]"
"","","","","","html-slider-response","76","148221","0.0-70.0","zf3pb4n3kv","NaN","<div style=""width:500px;"">
                                <p style=""font-size:50px; font-weight:bold;""
                                ></p>
                                <div style=""width:240px; margin: auto;"">
                                    <img src=""images/D51.png"" style= ""width:200px""alt=""img"">
                                </div>
                            </div>","15","","0","images/D51.png","","","","[""Blobby"",""Stripey""]"
"","","","","","html-slider-response","77","149687","0.0-71.0","zf3pb4n3kv","NaN","<div style=""width:500px;"">
                                <p style=""font-size:50px; font-weight:bold;""
                                ></p>
                                <div style=""width:240px; margin: auto;"">
                                    <img src=""images/D65.png"" style= ""width:200px""alt=""img"">
                                </div>
                            </div>","-37","","0","images/D65.png","","","","[""Blobby"",""Stripey""]"
"","","","","","html-slider-response","78","151059","0.0-72.0","zf3pb4n3kv","NaN","<div style=""width:500px;"">
                                <p style=""font-size:50px; font-weight:bold;""
                                ></p>
                                <div style=""width:240px; margin: auto;"">
                                    <img src=""images/D21.png"" style= ""width:200px""alt=""img"">
                                </div>
                            </div>","40","","0","images/D21.png","","","","[""Blobby"",""Stripey""]"
"","","","","","html-slider-response","79","152259","0.0-73.0","zf3pb4n3kv","NaN","<div style=""width:500px;"">
                                <p style=""font-size:50px; font-weight:bold;""
                                ></p>
                                <div style=""width:240px; margin: auto;"">
                                    <img src=""images/D94.png"" style= ""width:200px""alt=""img"">
                                </div>
                            </div>","-57","","0","images/D94.png","","","","[""Blobby"",""Stripey""]"
"","","","","","html-slider-response","80","153221","0.0-74.0","zf3pb4n3kv","NaN","<div style=""width:500px;"">
                                <p style=""font-size:50px; font-weight:bold;""
                                ></p>
                                <div style=""width:240px; margin: auto;"">
                                    <img src=""images/D8.png"" style= ""width:200px""alt=""img"">
                                </div>
                            </div>","-57","","0","images/D8.png","","","","[""Blobby"",""Stripey""]"
"","","","","","html-slider-response","81","154236","0.0-75.0","zf3pb4n3kv","NaN","<div style=""width:500px;"">
                                <p style=""font-size:50px; font-weight:bold;""
                                ></p>
                                <div style=""width:240px; margin: auto;"">
                                    <img src=""images/D52.png"" style= ""width:200px""alt=""img"">
                                </div>
                            </div>","-50","","0","images/D52.png","","","","[""Blobby"",""Stripey""]"
"","","","","","html-button-response","82","156367","0.0-76.0","zf3pb4n3kv","1621","You have completed the first block of trials out of six. Please click 'Continue' when you are ready proceed.","0","","","","","","",""
"","","","","","html-button-response","83","157504","0.0-77.0","zf3pb4n3kv","1135","In the following trials, you will be asked to rate textures on the scale <b>Hard</b> versus <b>Soft</b>. Please click 'Continue' when you are ready proceed.","0","","","","","","",""
"","","","","","html-slider-response","84","158763","0.0-78.0","zf3pb4n3kv","NaN","<div style=""width:500px;"">
                                <p style=""font-size:50px; font-weight:bold;""
                                ></p>
                                <div style=""width:240px; margin: auto;"">
                                    <img src=""images/D94.png"" style= ""width:200px""alt=""img"">
                                </div>
                            </div>","-50","","0","images/D94.png","","","","[""Hard"",""Soft""]"
"","","","","","html-slider-response","85","159954","0.0-79.0","zf3pb4n3kv","NaN","<div style=""width:500px;"">
                                <p style=""font-size:50px; font-weight:bold;""
                                ></p>
                                <div style=""width:240px; margin: auto;"">
                                    <img src=""images/D34.png"" style= ""width:200px""alt=""img"">
                                </div>
                            </div>","43","","0","images/D34.png","","","","[""Hard"",""Soft""]"
"","","","","","html-slider-response","86","161035","0.0-80.0","zf3pb4n3kv","NaN","<div style=""width:500px;"">
                                <p style=""font-size:50px; font-weight:bold;""
                                ></p>
                                <div style=""width:240px; margin: auto;"">
                                    <img src=""images/D56.png"" style= ""width:200px""alt=""img"">
                                </div>
                            </div>","-58","","0","images/D56.png","","","","[""Hard"",""Soft""]"
"","","","","","html-slider-response","87","162161","0.0-81.0","zf3pb4n3kv","NaN","<div style=""width:500px;"">
                                <p style=""font-size:50px; font-weight:bold;""
                                ></p>
                                <div style=""width:240px; margin: auto;"">
                                    <img src=""images/D35.png"" style= ""width:200px""alt=""img"">
                                </div>
                            </div>","26","","0","images/D35.png","","","","[""Hard"",""Soft""]"
"","","","","","html-slider-response","88","165146","0.0-82.0","zf3pb4n3kv","NaN","<div style=""width:500px;"">
                                <p style=""font-size:50px; font-weight:bold;""
                                ></p>
                                <div style=""width:240px; margin: auto;"">
                                    <img src=""images/D20.png"" style= ""width:200px""alt=""img"">
                                </div>
                            </div>","26","","0","images/D20.png","","","","[""Hard"",""Soft""]"
"","","","","","html-slider-response","89","166904","0.0-83.0","zf3pb4n3kv","NaN","<div style=""width:500px;"">
                                <p style=""font-size:50px; font-weight:bold;""
                                ></p>
                                <div style=""width:240px; margin: auto;"">
                                    <img src=""images/D37.png"" style= ""width:200px""alt=""img"">
                                </div>
                            </div>","-46","","0","images/D37.png","","","","[""Hard"",""Soft""]"
"","","","","","html-slider-response","90","168458","0.0-84.0","zf3pb4n3kv","NaN","<div style=""width:500px;"">
                                <p style=""font-size:50px; font-weight:bold;""
                                ></p>
                                <div style=""width:240px; margin: auto;"">
                                    <img src=""images/D103.png"" style= ""width:200px""alt=""img"">
                                </div>
                            </div>","56","","0","images/D103.png","","","","[""Hard"",""Soft""]"
"","","","","","html-slider-response","91","169398","0.0-85.0","zf3pb4n3kv","NaN","<div style=""width:500px;"">
                                <p style=""font-size:50px; font-weight:bold;""
                                ></p>
                                <div style=""width:240px; margin: auto;"">
                                    <img src=""images/D17.png"" style= ""width:200px""alt=""img"">
                                </div>
                            </div>","-38","","0","images/D17.png","","","","[""Hard"",""Soft""]"
"","","","","","html-slider-response","92","170380","0.0-86.0","zf3pb4n3kv","NaN","<div style=""width:500px;"">
                                <p style=""font-size:50px; font-weight:bold;""
                                ></p>
                                <div style=""width:240px; margin: auto;"">
                                    <img src=""images/D80.png"" style= ""width:200px""alt=""img"">
                                </div>
                            </div>","-38","","0","images/D80.png","","","","[""Hard"",""Soft""]"
"","","","","","html-slider-response","93","171566","0.0-87.0","zf3pb4n3kv","NaN","<div style=""width:500px;"">
                                <p style=""font-size:50px; font-weight:bold;""
                                ></p>
                                <div style=""width:240px; margin: auto;"">
                                    <img src=""images/D36.png"" style= ""width:200px""alt=""img"">
                                </div>
                            </div>","35","","0","images/D36.png","","","","[""Hard"",""Soft""]"
"","","","","","html-slider-response","94","173181","0.0-88.0","zf3pb4n3kv","NaN","<div style=""width:500px;"">
                                <p style=""font-size:50px; font-weight:bold;""
                                ></p>
                                <div style=""width:240px; margin: auto;"">
                                    <img src=""images/D74.png"" style= ""width:200px""alt=""img"">
                                </div>
                            </div>","-11","","0","images/D74.png","","","","[""Hard"",""Soft""]"
"","","","","","html-slider-response","95","174772","0.0-89.0","zf3pb4n3kv","NaN","<div style=""width:500px;"">
                                <p style=""font-size:50px; font-weight:bold;""
                                ></p>
                                <div style=""width:240px; margin: auto;"">
                                    <img src=""images/D83.png"" style= ""width:200px""alt=""img"">
                                </div>
                            </div>","16","","0","images/D83.png","","","","[""Hard"",""Soft""]"
"","","","","","html-slider-response","96","176494","0.0-90.0","zf3pb4n3kv","NaN","<div style=""width:500px;"">
                                <p style=""font-size:50px; font-weight:bold;""
                                ></p>
                                <div style=""width:240px; margin: auto;"">
                                    <img src=""images/D32.png"" style= ""width:200px""alt=""img"">
                                </div>
                            </div>","50","","0","images/D32.png","","","","[""Hard"",""Soft""]"
"","","","","","html-slider-response","97","177549","0.0-91.0","zf3pb4n3kv","NaN","<div style=""width:500px;"">
                                <p style=""font-size:50px; font-weight:bold;""
                                ></p>
                                <div style=""width:240px; margin: auto;"">
                                    <img src=""images/D79.png"" style= ""width:200px""alt=""img"">
                                </div>
                            </div>","31","","0","images/D79.png","","","","[""Hard"",""Soft""]"
"","","","","","html-slider-response","98","178701","0.0-92.0","zf3pb4n3kv","NaN","<div style=""width:500px;"">
                                <p style=""font-size:50px; font-weight:bold;""
                                ></p>
                                <div style=""width:240px; margin: auto;"">
                                    <img src=""images/D76.png"" style= ""width:200px""alt=""img"">
                                </div>
                            </div>","31","","0","images/D76.png","","","","[""Hard"",""Soft""]"
"","","","","","html-slider-response","99","179982","0.0-93.0","zf3pb4n3kv","NaN","<div style=""width:500px;"">
                                <p style=""font-size:50px; font-weight:bold;""
                                ></p>
                                <div style=""width:240px; margin: auto;"">
                                    <img src=""images/D47.png"" style= ""width:200px""alt=""img"">
                                </div>
                            </div>","-14","","0","images/D47.png","","","","[""Hard"",""Soft""]"
"","","","","","html-slider-response","100","181248","0.0-94.0","zf3pb4n3kv","NaN","<div style=""width:500px;"">
                                <p style=""font-size:50px; font-weight:bold;""
                                ></p>
                                <div style=""width:240px; margin: auto;"">
                                    <img src=""images/D101.png"" style= ""width:200px""alt=""img"">
                                </div>
                            </div>","24","","0","images/D101.png","","","","[""Hard"",""Soft""]"
"","","","","","html-slider-response","101","184222","0.0-95.0","zf3pb4n3kv","NaN","<div style=""width:500px;"">
                                <p style=""font-size:50px; font-weight:bold;""
                                ></p>
                                <div style=""width:240px; margin: auto;"">
                                    <img src=""images/D82.png"" style= ""width:200px""alt=""img"">
                                </div>
                            </div>","-54","","0","images/D82.png","","","","[""Hard"",""Soft""]"
"","","","","","html-slider-response","102","185949","0.0-96.0","zf3pb4n3kv","NaN","<div style=""width:500px;"">
                                <p style=""font-size:50px; font-weight:bold;""
                                ></p>
                                <div style=""width:240px; margin: auto;"">
                                    <img src=""images/D105.png"" style= ""width:200px""alt=""img"">
                                </div>
                            </div>","-35","","0","images/D105.png","","","","[""Hard"",""Soft""]"
"","","","","","html-slider-response","103","187251","0.0-97.0","zf3pb4n3kv","NaN","<div style=""width:500px;"">
                                <p style=""font-size:50px; font-weight:bold;""
                                ></p>
                                <div style=""width:240px; margin: auto;"">
                                    <img src=""images/D29.png"" style= ""width:200px""alt=""img"">
                                </div>
                            </div>","73","","0","images/D29.png","","","","[""Hard"",""Soft""]"
"","","","","","html-slider-response","104","189018","0.0-98.0","zf3pb4n3kv","NaN","<div style=""width:500px;"">
                                <p style=""font-size:50px; font-weight:bold;""
                                ></p>
                                <div style=""width:240px; margin: auto;"">
                                    <img src=""images/D87.png"" style= ""width:200px""alt=""img"">
                                </div>
                            </div>","-54","","0","images/D87.png","","","","[""Hard"",""Soft""]"
"","","","","","html-slider-response","105","191053","0.0-99.0","zf3pb4n3kv","NaN","<div style=""width:500px;"">
                                <p style=""font-size:50px; font-weight:bold;""
                                ></p>
                                <div style=""width:240px; margin: auto;"">
                                    <img src=""images/D92.png"" style= ""width:200px""alt=""img"">
                                </div>
                            </div>","-60","","0","images/D92.png","","","","[""Hard"",""Soft""]"
"","","","","","html-slider-response","106","192216","0.0-100.0","zf3pb4n3kv","NaN","<div style=""width:500px;"">
                                <p style=""font-size:50px; font-weight:bold;""
                                ></p>
                                <div style=""width:240px; margin: auto;"">
                                    <img src=""images/D81.png"" style= ""width:200px""alt=""img"">
                                </div>
                            </div>","-49","","0","images/D81.png","","","","[""Hard"",""Soft""]"
"","","","","","html-slider-response","107","193725","0.0-101.0","zf3pb4n3kv","NaN","<div style=""width:500px;"">
                                <p style=""font-size:50px; font-weight:bold;""
                                ></p>
                                <div style=""width:240px; margin: auto;"">
                                    <img src=""images/D14.png"" style= ""width:200px""alt=""img"">
                                </div>
                            </div>","24","","0","images/D14.png","","","","[""Hard"",""Soft""]"
"","","","","","html-slider-response","108","195526","0.0-102.0","zf3pb4n3kv","NaN","<div style=""width:500px;"">
                                <p style=""font-size:50px; font-weight:bold;""
                                ></p>
                                <div style=""width:240px; margin: auto;"">
                                    <img src=""images/D18.png"" style= ""width:200px""alt=""img"">
                                </div>
                            </div>","-11","","0","images/D18.png","","","","[""Hard"",""Soft""]"
"","","","","","html-slider-response","109","196586","0.0-103.0","zf3pb4n3kv","NaN","<div style=""width:500px;"">
                                <p style=""font-size:50px; font-weight:bold;""
                                ></p>
                                <div style=""width:240px; margin: auto;"">
                                    <img src=""images/D102.png"" style= ""width:200px""alt=""img"">
                                </div>
                            </div>","-17","","0","images/D102.png","","","","[""Hard"",""Soft""]"
"","","","","","html-slider-response","110","197996","0.0-104.0","zf3pb4n3kv","NaN","<div style=""width:500px;"">
                                <p style=""font-size:50px; font-weight:bold;""
                                ></p>
                                <div style=""width:240px; margin: auto;"">
                                    <img src=""images/D78.png"" style= ""width:200px""alt=""img"">
                                </div>
                            </div>","8","","0","images/D78.png","","","","[""Hard"",""Soft""]"
"","","","","","html-slider-response","111","199163","0.0-105.0","zf3pb4n3kv","NaN","<div style=""width:500px;"">
                                <p style=""font-size:50px; font-weight:bold;""
                                ></p>
                                <div style=""width:240px; margin: auto;"">
                                    <img src=""images/D8.png"" style= ""width:200px""alt=""img"">
                                </div>
                            </div>","-57","","0","images/D8.png","","","","[""Hard"",""Soft""]"
"","","","","","html-slider-response","112","200619","0.0-106.0","zf3pb4n3kv","NaN","<div style=""width:500px;"">
                                <p style=""font-size:50px; font-weight:bold;""
                                ></p>
                                <div style=""width:240px; margin: auto;"">
                                    <img src=""images/D84.png"" style= ""width:200px""alt=""img"">
                                </div>
                            </div>","-78","","0","images/D84.png","","","","[""Hard"",""Soft""]"
"","","","","","html-slider-response","113","201841","0.0-107.0","zf3pb4n3kv","NaN","<div style=""width:500px;"">
                                <p style=""font-size:50px; font-weight:bold;""
                                ></p>
                                <div style=""width:240px; margin: auto;"">
                                    <img src=""images/D24.png"" style= ""width:200px""alt=""img"">
                                </div>
                            </div>","54","","0","images/D24.png","","","","[""Hard"",""Soft""]"
"","","","","","html-slider-response","114","203279","0.0-108.0","zf3pb4n3kv","NaN","<div style=""width:500px;"">
                                <p style=""font-size:50px; font-weight:bold;""
                                ></p>
                                <div style=""width:240px; margin: auto;"">
                                    <img src=""images/D75.png"" style= ""width:200px""alt=""img"">
                                </div>
                            </div>","-54","","0","images/D75.png","","","","[""Hard"",""Soft""]"
"","","","","","html-slider-response","115","204919","0.0-109.0","zf3pb4n3kv","NaN","<div style=""width:500px;"">
                                <p style=""font-size:50px; font-weight:bold;""
                                ></p>
                                <div style=""width:240px; margin: auto;"">
                                    <img src=""images/D111.png"" style= ""width:200px""alt=""img"">
                                </div>
                            </div>","-53","","0","images/D111.png","","","","[""Hard"",""Soft""]"
"","","","","","html-slider-response","116","206177","0.0-110.0","zf3pb4n3kv","NaN","<div style=""width:500px;"">
                                <p style=""font-size:50px; font-weight:bold;""
                                ></p>
                                <div style=""width:240px; margin: auto;"">
                                    <img src=""images/D4.png"" style= ""width:200px""alt=""img"">
                                </div>
                            </div>","42","","0","images/D4.png","","","","[""Hard"",""Soft""]"
"","","","","","html-slider-response","117","208579","0.0-111.0","zf3pb4n3kv","NaN","<div style=""width:500px;"">
                                <p style=""font-size:50px; font-weight:bold;""
                                ></p>
                                <div style=""width:240px; margin: auto;"">
                                    <img src=""images/D48.png"" style= ""width:200px""alt=""img"">
                                </div>
                            </div>","64","","0","images/D48.png","","","","[""Hard"",""Soft""]"
"","","","","","html-slider-response","118","210505","0.0-112.0","zf3pb4n3kv","NaN","<div style=""width:500px;"">
                                <p style=""font-size:50px; font-weight:bold;""
                                ></p>
                                <div style=""width:240px; margin: auto;"">
                                    <img src=""images/D51.png"" style= ""width:200px""alt=""img"">
                                </div>
                            </div>","-35","","0","images/D51.png","","","","[""Hard"",""Soft""]"
"","","","","","html-slider-response","119","211641","0.0-113.0","zf3pb4n3kv","NaN","<div style=""width:500px;"">
                                <p style=""font-size:50px; font-weight:bold;""
                                ></p>
                                <div style=""width:240px; margin: auto;"">
                                    <img src=""images/D64.png"" style= ""width:200px""alt=""img"">
                                </div>
                            </div>","-35","","0","images/D64.png","","","","[""Hard"",""Soft""]"
"","","","","","html-slider-response","120","212729","0.0-114.0","zf3pb4n3kv","NaN","<div style=""width:500px;"">
                                <p style=""font-size:50px; font-weight:bold;""
                                ></p>
                                <div style=""width:240px; margin: auto;"">
                                    <img src=""images/D6.png"" style= ""width:200px""alt=""img"">
                                </div>
                            </div>","-35","","0","images/D6.png","","","","[""Hard"",""Soft""]"
"","","","","","html-slider-response","121","213433","0.0-115.0","zf3pb4n3kv","NaN","<div style=""width:500px;"">
                                <p style=""font-size:50px; font-weight:bold;""
                                ></p>
                                <div style=""width:240px; margin: auto;"">
                                    <img src=""images/D95.png"" style= ""width:200px""alt=""img"">
                                </div>
                            </div>","-35","","0","images/D95.png","","","","[""Hard"",""Soft""]"
"","","","","","html-slider-response","122","214176","0.0-116.0","zf3pb4n3kv","NaN","<div style=""width:500px;"">
                                <p style=""font-size:50px; font-weight:bold;""
                                ></p>
                                <div style=""width:240px; margin: auto;"">
                                    <img src=""images/D106.png"" style= ""width:200px""alt=""img"">
                                </div>
                            </div>","-35","","0","images/D106.png","","","","[""Hard"",""Soft""]"
"","","","","","html-slider-response","123","215171","0.0-117.0","zf3pb4n3kv","NaN","<div style=""width:500px;"">
                                <p style=""font-size:50px; font-weight:bold;""
                                ></p>
                                <div style=""width:240px; margin: auto;"">
                                    <img src=""images/D52.png"" style= ""width:200px""alt=""img"">
                                </div>
                            </div>","-35","","0","images/D52.png","","","","[""Hard"",""Soft""]"
"","","","","","html-slider-response","124","216154","0.0-118.0","zf3pb4n3kv","NaN","<div style=""width:500px;"">
                                <p style=""font-size:50px; font-weight:bold;""
                                ></p>
                                <div style=""width:240px; margin: auto;"">
                                    <img src=""images/D16.png"" style= ""width:200px""alt=""img"">
                                </div>
                            </div>","-30","","0","images/D16.png","","","","[""Hard"",""Soft""]"
"","","","","","html-slider-response","125","217601","0.0-119.0","zf3pb4n3kv","NaN","<div style=""width:500px;"">
                                <p style=""font-size:50px; font-weight:bold;""
                                ></p>
                                <div style=""width:240px; margin: auto;"">
                                    <img src=""images/D65.png"" style= ""width:200px""alt=""img"">
                                </div>
                            </div>","-26","","0","images/D65.png","","","","[""Hard"",""Soft""]"
"","","","","","html-slider-response","126","218472","0.0-120.0","zf3pb4n3kv","NaN","<div style=""width:500px;"">
                                <p style=""font-size:50px; font-weight:bold;""
                                ></p>
                                <div style=""width:240px; margin: auto;"">
                                    <img src=""images/D1.png"" style= ""width:200px""alt=""img"">
                                </div>
                            </div>","-26","","0","images/D1.png","","","","[""Hard"",""Soft""]"
"","","","","","html-slider-response","127","219482","0.0-121.0","zf3pb4n3kv","NaN","<div style=""width:500px;"">
                                <p style=""font-size:50px; font-weight:bold;""
                                ></p>
                                <div style=""width:240px; margin: auto;"">
                                    <img src=""images/D57.png"" style= ""width:200px""alt=""img"">
                                </div>
                            </div>","-22","","0","images/D57.png","","","","[""Hard"",""Soft""]"
"","","","","","html-slider-response","128","220539","0.0-122.0","zf3pb4n3kv","NaN","<div style=""width:500px;"">
                                <p style=""font-size:50px; font-weight:bold;""
                                ></p>
                                <div style=""width:240px; margin: auto;"">
                                    <img src=""images/D49.png"" style= ""width:200px""alt=""img"">
                                </div>
                            </div>","-20","","0","images/D49.png","","","","[""Hard"",""Soft""]"
"","","","","","html-slider-response","129","221421","0.0-123.0","zf3pb4n3kv","NaN","<div style=""width:500px;"">
                                <p style=""font-size:50px; font-weight:bold;""
                                ></p>
                                <div style=""width:240px; margin: auto;"">
                                    <img src=""images/D25.png"" style= ""width:200px""alt=""img"">
                                </div>
                            </div>","-20","","0","images/D25.png","","","","[""Hard"",""Soft""]"
"","","","","","html-slider-response","130","222664","0.0-124.0","zf3pb4n3kv","NaN","<div style=""width:500px;"">
                                <p style=""font-size:50px; font-weight:bold;""
                                ></p>
                                <div style=""width:240px; margin: auto;"">
                                    <img src=""images/D26.png"" style= ""width:200px""alt=""img"">
                                </div>
                            </div>","-18","","0","images/D26.png","","","","[""Hard"",""Soft""]"
"","","","","","html-slider-response","131","223848","0.0-125.0","zf3pb4n3kv","NaN","<div style=""width:500px;"">
                                <p style=""font-size:50px; font-weight:bold;""
                                ></p>
                                <div style=""width:240px; margin: auto;"">
                                    <img src=""images/D66.png"" style= ""width:200px""alt=""img"">
                                </div>
                            </div>","-39","","0","images/D66.png","","","","[""Hard"",""Soft""]"
"","","","","","html-slider-response","132","224702","0.0-126.0","zf3pb4n3kv","NaN","<div style=""width:500px;"">
                                <p style=""font-size:50px; font-weight:bold;""
                                ></p>
                                <div style=""width:240px; margin: auto;"">
                                    <img src=""images/D21.png"" style= ""width:200px""alt=""img"">
                                </div>
                            </div>","-39","","0","images/D21.png","","","","[""Hard"",""Soft""]"
"","","","","","html-slider-response","133","226053","0.0-127.0","zf3pb4n3kv","NaN","<div style=""width:500px;"">
                                <p style=""font-size:50px; font-weight:bold;""
                                ></p>
                                <div style=""width:240px; margin: auto;"">
                                    <img src=""images/D11.png"" style= ""width:200px""alt=""img"">
                                </div>
                            </div>","-40","","0","images/D11.png","","","","[""Hard"",""Soft""]"
"","","","","","html-slider-response","134","228832","0.0-128.0","zf3pb4n3kv","NaN","<div style=""width:500px;"">
                                <p style=""font-size:50px; font-weight:bold;""
                                ></p>
                                <div style=""width:240px; margin: auto;"">
                                    <img src=""images/D19.png"" style= ""width:200px""alt=""img"">
                                </div>
                            </div>","-69","","0","images/D19.png","","","","[""Hard"",""Soft""]"
"","","","","","html-slider-response","135","230028","0.0-129.0","zf3pb4n3kv","NaN","<div style=""width:500px;"">
                                <p style=""font-size:50px; font-weight:bold;""
                                ></p>
                                <div style=""width:240px; margin: auto;"">
                                    <img src=""images/D104.png"" style= ""width:200px""alt=""img"">
                                </div>
                            </div>","-63","","0","images/D104.png","","","","[""Hard"",""Soft""]"
"","","","","","html-slider-response","136","230723","0.0-130.0","zf3pb4n3kv","NaN","<div style=""width:500px;"">
                                <p style=""font-size:50px; font-weight:bold;""
                                ></p>
                                <div style=""width:240px; margin: auto;"">
                                    <img src=""images/D53.png"" style= ""width:200px""alt=""img"">
                                </div>
                            </div>","-59","","0","images/D53.png","","","","[""Hard"",""Soft""]"
"","","","","","html-slider-response","137","231436","0.0-131.0","zf3pb4n3kv","NaN","<div style=""width:500px;"">
                                <p style=""font-size:50px; font-weight:bold;""
                                ></p>
                                <div style=""width:240px; margin: auto;"">
                                    <img src=""images/D3.png"" style= ""width:200px""alt=""img"">
                                </div>
                            </div>","-58","","0","images/D3.png","","","","[""Hard"",""Soft""]"
"","","","","","html-slider-response","138","232128","0.0-132.0","zf3pb4n3kv","NaN","<div style=""width:500px;"">
                                <p style=""font-size:50px; font-weight:bold;""
                                ></p>
                                <div style=""width:240px; margin: auto;"">
                                    <img src=""images/D9.png"" style= ""width:200px""alt=""img"">
                                </div>
                            </div>","-53","","0","images/D9.png","","","","[""Hard"",""Soft""]"
"","","","","","html-slider-response","139","232835","0.0-133.0","zf3pb4n3kv","NaN","<div style=""width:500px;"">
                                <p style=""font-size:50px; font-weight:bold;""
                                ></p>
                                <div style=""width:240px; margin: auto;"">
                                    <img src=""images/D22.png"" style= ""width:200px""alt=""img"">
                                </div>
                            </div>","-50","","0","images/D22.png","","","","[""Hard"",""Soft""]"
"","","","","","html-slider-response","140","233485","0.0-134.0","zf3pb4n3kv","NaN","<div style=""width:500px;"">
                                <p style=""font-size:50px; font-weight:bold;""
                                ></p>
                                <div style=""width:240px; margin: auto;"">
                                    <img src=""images/D68.png"" style= ""width:200px""alt=""img"">
                                </div>
                            </div>","-46","","0","images/D68.png","","","","[""Hard"",""Soft""]"
"","","","","","html-slider-response","141","234170","0.0-135.0","zf3pb4n3kv","NaN","<div style=""width:500px;"">
                                <p style=""font-size:50px; font-weight:bold;""
                                ></p>
                                <div style=""width:240px; margin: auto;"">
                                    <img src=""images/D77.png"" style= ""width:200px""alt=""img"">
                                </div>
                            </div>","-42","","0","images/D77.png","","","","[""Hard"",""Soft""]"
"","","","","","html-slider-response","142","234867","0.0-136.0","zf3pb4n3kv","NaN","<div style=""width:500px;"">
                                <p style=""font-size:50px; font-weight:bold;""
                                ></p>
                                <div style=""width:240px; margin: auto;"">
                                    <img src=""images/D46.png"" style= ""width:200px""alt=""img"">
                                </div>
                            </div>","5","","0","images/D46.png","","","","[""Hard"",""Soft""]"
"","","","","","html-slider-response","143","235754","0.0-137.0","zf3pb4n3kv","NaN","<div style=""width:500px;"">
                                <p style=""font-size:50px; font-weight:bold;""
                                ></p>
                                <div style=""width:240px; margin: auto;"">
                                    <img src=""images/D96.png"" style= ""width:200px""alt=""img"">
                                </div>
                            </div>","5","","0","images/D96.png","","","","[""Hard"",""Soft""]"
"","","","","","html-slider-response","144","236460","0.0-138.0","zf3pb4n3kv","NaN","<div style=""width:500px;"">
                                <p style=""font-size:50px; font-weight:bold;""
                                ></p>
                                <div style=""width:240px; margin: auto;"">
                                    <img src=""images/D85.png"" style= ""width:200px""alt=""img"">
                                </div>
                            </div>","5","","0","images/D85.png","","","","[""Hard"",""Soft""]"
"","","","","","html-slider-response","145","237121","0.0-139.0","zf3pb4n3kv","NaN","<div style=""width:500px;"">
                                <p style=""font-size:50px; font-weight:bold;""
                                ></p>
                                <div style=""width:240px; margin: auto;"">
                                    <img src=""images/D55.png"" style= ""width:200px""alt=""img"">
                                </div>
                            </div>","5","","0","images/D55.png","","","","[""Hard"",""Soft""]"
"","","","","","html-button-response","146","240011","0.0-140.0","zf3pb4n3kv","2382","You have completed the second block of trials out of six. Please click 'Continue' when you are ready proceed.","0","","","","","","",""
"","","","","","html-button-response","147","240789","0.0-141.0","zf3pb4n3kv","777","In the following trials, you will be asked to rate textures on the scale <b>Random</b> versus <b>Non-Random</b>. Please click 'Continue' when you are ready proceed.","0","","","","","","",""
"","","","","","html-slider-response","148","242998","0.0-142.0","zf3pb4n3kv","NaN","<div style=""width:500px;"">
                                <p style=""font-size:50px; font-weight:bold;""
                                ></p>
                                <div style=""width:240px; margin: auto;"">
                                    <img src=""images/D83.png"" style= ""width:200px""alt=""img"">
                                </div>
                            </div>","69","","0","images/D83.png","","","","[""Random"",""Non-random""]"
"","","","","","html-slider-response","149","243669","0.0-143.0","zf3pb4n3kv","NaN","<div style=""width:500px;"">
                                <p style=""font-size:50px; font-weight:bold;""
                                ></p>
                                <div style=""width:240px; margin: auto;"">
                                    <img src=""images/D77.png"" style= ""width:200px""alt=""img"">
                                </div>
                            </div>","70","","0","images/D77.png","","","","[""Random"",""Non-random""]"
"","","","","","html-slider-response","150","244317","0.0-144.0","zf3pb4n3kv","NaN","<div style=""width:500px;"">
                                <p style=""font-size:50px; font-weight:bold;""
                                ></p>
                                <div style=""width:240px; margin: auto;"">
                                    <img src=""images/D57.png"" style= ""width:200px""alt=""img"">
                                </div>
                            </div>","70","","0","images/D57.png","","","","[""Random"",""Non-random""]"
"","","","","","html-slider-response","151","245272","0.0-145.0","zf3pb4n3kv","NaN","<div style=""width:500px;"">
                                <p style=""font-size:50px; font-weight:bold;""
                                ></p>
                                <div style=""width:240px; margin: auto;"">
                                    <img src=""images/D92.png"" style= ""width:200px""alt=""img"">
                                </div>
                            </div>","70","","0","images/D92.png","","","","[""Random"",""Non-random""]"
"","","","","","html-slider-response","152","245930","0.0-146.0","zf3pb4n3kv","NaN","<div style=""width:500px;"">
                                <p style=""font-size:50px; font-weight:bold;""
                                ></p>
                                <div style=""width:240px; margin: auto;"">
                                    <img src=""images/D85.png"" style= ""width:200px""alt=""img"">
                                </div>
                            </div>","70","","0","images/D85.png","","","","[""Random"",""Non-random""]"
"","","","","","html-slider-response","153","246661","0.0-147.0","zf3pb4n3kv","NaN","<div style=""width:500px;"">
                                <p style=""font-size:50px; font-weight:bold;""
                                ></p>
                                <div style=""width:240px; margin: auto;"">
                                    <img src=""images/D35.png"" style= ""width:200px""alt=""img"">
                                </div>
                            </div>","70","","0","images/D35.png","","","","[""Random"",""Non-random""]"
"","","","","","html-slider-response","154","247277","0.0-148.0","zf3pb4n3kv","NaN","<div style=""width:500px;"">
                                <p style=""font-size:50px; font-weight:bold;""
                                ></p>
                                <div style=""width:240px; margin: auto;"">
                                    <img src=""images/D56.png"" style= ""width:200px""alt=""img"">
                                </div>
                            </div>","77","","0","images/D56.png","","","","[""Random"",""Non-random""]"
"","","","","","html-slider-response","155","248123","0.0-149.0","zf3pb4n3kv","NaN","<div style=""width:500px;"">
                                <p style=""font-size:50px; font-weight:bold;""
                                ></p>
                                <div style=""width:240px; margin: auto;"">
                                    <img src=""images/D53.png"" style= ""width:200px""alt=""img"">
                                </div>
                            </div>","82","","0","images/D53.png","","","","[""Random"",""Non-random""]"
"","","","","","html-slider-response","156","248936","0.0-150.0","zf3pb4n3kv","NaN","<div style=""width:500px;"">
                                <p style=""font-size:50px; font-weight:bold;""
                                ></p>
                                <div style=""width:240px; margin: auto;"">
                                    <img src=""images/D29.png"" style= ""width:200px""alt=""img"">
                                </div>
                            </div>","82","","0","images/D29.png","","","","[""Random"",""Non-random""]"
"","","","","","html-slider-response","157","249851","0.0-151.0","zf3pb4n3kv","NaN","<div style=""width:500px;"">
                                <p style=""font-size:50px; font-weight:bold;""
                                ></p>
                                <div style=""width:240px; margin: auto;"">
                                    <img src=""images/D4.png"" style= ""width:200px""alt=""img"">
                                </div>
                            </div>","82","","0","images/D4.png","","","","[""Random"",""Non-random""]"
"","","","","","html-slider-response","158","251009","0.0-152.0","zf3pb4n3kv","NaN","<div style=""width:500px;"">
                                <p style=""font-size:50px; font-weight:bold;""
                                ></p>
                                <div style=""width:240px; margin: auto;"">
                                    <img src=""images/D19.png"" style= ""width:200px""alt=""img"">
                                </div>
                            </div>","82","","0","images/D19.png","","","","[""Random"",""Non-random""]"
"","","","","","html-slider-response","159","252034","0.0-153.0","zf3pb4n3kv","NaN","<div style=""width:500px;"">
                                <p style=""font-size:50px; font-weight:bold;""
                                ></p>
                                <div style=""width:240px; margin: auto;"">
                                    <img src=""images/D87.png"" style= ""width:200px""alt=""img"">
                                </div>
                            </div>","82","","0","images/D87.png","","","","[""Random"",""Non-random""]"
"","","","","","html-slider-response","160","253128","0.0-154.0","zf3pb4n3kv","NaN","<div style=""width:500px;"">
                                <p style=""font-size:50px; font-weight:bold;""
                                ></p>
                                <div style=""width:240px; margin: auto;"">
                                    <img src=""images/D84.png"" style= ""width:200px""alt=""img"">
                                </div>
                            </div>","82","","0","images/D84.png","","","","[""Random"",""Non-random""]"
"","","","","","html-slider-response","161","254070","0.0-155.0","zf3pb4n3kv","NaN","<div style=""width:500px;"">
                                <p style=""font-size:50px; font-weight:bold;""
                                ></p>
                                <div style=""width:240px; margin: auto;"">
                                    <img src=""images/D102.png"" style= ""width:200px""alt=""img"">
                                </div>
                            </div>","82","","0","images/D102.png","","","","[""Random"",""Non-random""]"
"","","","","","html-slider-response","162","255077","0.0-156.0","zf3pb4n3kv","NaN","<div style=""width:500px;"">
                                <p style=""font-size:50px; font-weight:bold;""
                                ></p>
                                <div style=""width:240px; margin: auto;"">
                                    <img src=""images/D32.png"" style= ""width:200px""alt=""img"">
                                </div>
                            </div>","82","","0","images/D32.png","","","","[""Random"",""Non-random""]"
"","","","","","html-slider-response","163","255920","0.0-157.0","zf3pb4n3kv","NaN","<div style=""width:500px;"">
                                <p style=""font-size:50px; font-weight:bold;""
                                ></p>
                                <div style=""width:240px; margin: auto;"">
                                    <img src=""images/D48.png"" style= ""width:200px""alt=""img"">
                                </div>
                            </div>","82","","0","images/D48.png","","","","[""Random"",""Non-random""]"
"","","","","","html-slider-response","164","257024","0.0-158.0","zf3pb4n3kv","NaN","<div style=""width:500px;"">
                                <p style=""font-size:50px; font-weight:bold;""
                                ></p>
                                <div style=""width:240px; margin: auto;"">
                                    <img src=""images/D80.png"" style= ""width:200px""alt=""img"">
                                </div>
                            </div>","82","","0","images/D80.png","","","","[""Random"",""Non-random""]"
"","","","","","html-slider-response","165","258100","0.0-159.0","zf3pb4n3kv","NaN","<div style=""width:500px;"">
                                <p style=""font-size:50px; font-weight:bold;""
                                ></p>
                                <div style=""width:240px; margin: auto;"">
                                    <img src=""images/D3.png"" style= ""width:200px""alt=""img"">
                                </div>
                            </div>","82","","0","images/D3.png","","","","[""Random"",""Non-random""]"
"","","","","","html-slider-response","166","258915","0.0-160.0","zf3pb4n3kv","NaN","<div style=""width:500px;"">
                                <p style=""font-size:50px; font-weight:bold;""
                                ></p>
                                <div style=""width:240px; margin: auto;"">
                                    <img src=""images/D24.png"" style= ""width:200px""alt=""img"">
                                </div>
                            </div>","82","","0","images/D24.png","","","","[""Random"",""Non-random""]"
"","","","","","html-slider-response","167","260339","0.0-161.0","zf3pb4n3kv","NaN","<div style=""width:500px;"">
                                <p style=""font-size:50px; font-weight:bold;""
                                ></p>
                                <div style=""width:240px; margin: auto;"">
                                    <img src=""images/D17.png"" style= ""width:200px""alt=""img"">
                                </div>
                            </div>","82","","0","images/D17.png","","","","[""Random"",""Non-random""]"
"","","","","","html-slider-response","168","261384","0.0-162.0","zf3pb4n3kv","NaN","<div style=""width:500px;"">
                                <p style=""font-size:50px; font-weight:bold;""
                                ></p>
                                <div style=""width:240px; margin: auto;"">
                                    <img src=""images/D18.png"" style= ""width:200px""alt=""img"">
                                </div>
                            </div>","82","","0","images/D18.png","","","","[""Random"",""Non-random""]"
"","","","","","html-slider-response","169","262299","0.0-163.0","zf3pb4n3kv","NaN","<div style=""width:500px;"">
                                <p style=""font-size:50px; font-weight:bold;""
                                ></p>
                                <div style=""width:240px; margin: auto;"">
                                    <img src=""images/D101.png"" style= ""width:200px""alt=""img"">
                                </div>
                            </div>","82","","0","images/D101.png","","","","[""Random"",""Non-random""]"
"","","","","","html-slider-response","170","263821","0.0-164.0","zf3pb4n3kv","NaN","<div style=""width:500px;"">
                                <p style=""font-size:50px; font-weight:bold;""
                                ></p>
                                <div style=""width:240px; margin: auto;"">
                                    <img src=""images/D96.png"" style= ""width:200px""alt=""img"">
                                </div>
                            </div>","82","","0","images/D96.png","","","","[""Random"",""Non-random""]"
"","","","","","html-slider-response","171","265060","0.0-165.0","zf3pb4n3kv","NaN","<div style=""width:500px;"">
                                <p style=""font-size:50px; font-weight:bold;""
                                ></p>
                                <div style=""width:240px; margin: auto;"">
                                    <img src=""images/D64.png"" style= ""width:200px""alt=""img"">
                                </div>
                            </div>","82","","0","images/D64.png","","","","[""Random"",""Non-random""]"
"","","","","","html-slider-response","172","266079","0.0-166.0","zf3pb4n3kv","NaN","<div style=""width:500px;"">
                                <p style=""font-size:50px; font-weight:bold;""
                                ></p>
                                <div style=""width:240px; margin: auto;"">
                                    <img src=""images/D55.png"" style= ""width:200px""alt=""img"">
                                </div>
                            </div>","82","","0","images/D55.png","","","","[""Random"",""Non-random""]"
"","","","","","html-slider-response","173","268069","0.0-167.0","zf3pb4n3kv","NaN","<div style=""width:500px;"">
                                <p style=""font-size:50px; font-weight:bold;""
                                ></p>
                                <div style=""width:240px; margin: auto;"">
                                    <img src=""images/D103.png"" style= ""width:200px""alt=""img"">
                                </div>
                            </div>","82","","0","images/D103.png","","","","[""Random"",""Non-random""]"
"","","","","","html-slider-response","174","271756","0.0-168.0","zf3pb4n3kv","NaN","<div style=""width:500px;"">
                                <p style=""font-size:50px; font-weight:bold;""
                                ></p>
                                <div style=""width:240px; margin: auto;"">
                                    <img src=""images/D6.png"" style= ""width:200px""alt=""img"">
                                </div>
                            </div>","82","","0","images/D6.png","","","","[""Random"",""Non-random""]"
"","","","","","html-slider-response","175","272980","0.0-169.0","zf3pb4n3kv","NaN","<div style=""width:500px;"">
                                <p style=""font-size:50px; font-weight:bold;""
                                ></p>
                                <div style=""width:240px; margin: auto;"">
                                    <img src=""images/D75.png"" style= ""width:200px""alt=""img"">
                                </div>
                            </div>","82","","0","images/D75.png","","","","[""Random"",""Non-random""]"
"","","","","","html-slider-response","176","274303","0.0-170.0","zf3pb4n3kv","NaN","<div style=""width:500px;"">
                                <p style=""font-size:50px; font-weight:bold;""
                                ></p>
                                <div style=""width:240px; margin: auto;"">
                                    <img src=""images/D78.png"" style= ""width:200px""alt=""img"">
                                </div>
                            </div>","82","","0","images/D78.png","","","","[""Random"",""Non-random""]"
"","","","","","html-slider-response","177","275212","0.0-171.0","zf3pb4n3kv","NaN","<div style=""width:500px;"">
                                <p style=""font-size:50px; font-weight:bold;""
                                ></p>
                                <div style=""width:240px; margin: auto;"">
                                    <img src=""images/D66.png"" style= ""width:200px""alt=""img"">
                                </div>
                            </div>","82","","0","images/D66.png","","","","[""Random"",""Non-random""]"
"","","","","","html-slider-response","178","276095","0.0-172.0","zf3pb4n3kv","NaN","<div style=""width:500px;"">
                                <p style=""font-size:50px; font-weight:bold;""
                                ></p>
                                <div style=""width:240px; margin: auto;"">
                                    <img src=""images/D111.png"" style= ""width:200px""alt=""img"">
                                </div>
                            </div>","82","","0","images/D111.png","","","","[""Random"",""Non-random""]"
"","","","","","html-slider-response","179","277341","0.0-173.0","zf3pb4n3kv","NaN","<div style=""width:500px;"">
                                <p style=""font-size:50px; font-weight:bold;""
                                ></p>
                                <div style=""width:240px; margin: auto;"">
                                    <img src=""images/D74.png"" style= ""width:200px""alt=""img"">
                                </div>
                            </div>","82","","0","images/D74.png","","","","[""Random"",""Non-random""]"
"","","","","","html-slider-response","180","278591","0.0-174.0","zf3pb4n3kv","NaN","<div style=""width:500px;"">
                                <p style=""font-size:50px; font-weight:bold;""
                                ></p>
                                <div style=""width:240px; margin: auto;"">
                                    <img src=""images/D26.png"" style= ""width:200px""alt=""img"">
                                </div>
                            </div>","82","","0","images/D26.png","","","","[""Random"",""Non-random""]"
"","","","","","html-slider-response","181","279410","0.0-175.0","zf3pb4n3kv","NaN","<div style=""width:500px;"">
                                <p style=""font-size:50px; font-weight:bold;""
                                ></p>
                                <div style=""width:240px; margin: auto;"">
                                    <img src=""images/D16.png"" style= ""width:200px""alt=""img"">
                                </div>
                            </div>","82","","0","images/D16.png","","","","[""Random"",""Non-random""]"
"","","","","","html-slider-response","182","280543","0.0-176.0","zf3pb4n3kv","NaN","<div style=""width:500px;"">
                                <p style=""font-size:50px; font-weight:bold;""
                                ></p>
                                <div style=""width:240px; margin: auto;"">
                                    <img src=""images/D34.png"" style= ""width:200px""alt=""img"">
                                </div>
                            </div>","82","","0","images/D34.png","","","","[""Random"",""Non-random""]"
"","","","","","html-slider-response","183","281549","0.0-177.0","zf3pb4n3kv","NaN","<div style=""width:500px;"">
                                <p style=""font-size:50px; font-weight:bold;""
                                ></p>
                                <div style=""width:240px; margin: auto;"">
                                    <img src=""images/D79.png"" style= ""width:200px""alt=""img"">
                                </div>
                            </div>","82","","0","images/D79.png","","","","[""Random"",""Non-random""]"
"","","","","","html-slider-response","184","282516","0.0-178.0","zf3pb4n3kv","NaN","<div style=""width:500px;"">
                                <p style=""font-size:50px; font-weight:bold;""
                                ></p>
                                <div style=""width:240px; margin: auto;"">
                                    <img src=""images/D82.png"" style= ""width:200px""alt=""img"">
                                </div>
                            </div>","82","","0","images/D82.png","","","","[""Random"",""Non-random""]"
"","","","","","html-slider-response","185","283622","0.0-179.0","zf3pb4n3kv","NaN","<div style=""width:500px;"">
                                <p style=""font-size:50px; font-weight:bold;""
                                ></p>
                                <div style=""width:240px; margin: auto;"">
                                    <img src=""images/D47.png"" style= ""width:200px""alt=""img"">
                                </div>
                            </div>","82","","0","images/D47.png","","","","[""Random"",""Non-random""]"
"","","","","","html-slider-response","186","284596","0.0-180.0","zf3pb4n3kv","NaN","<div style=""width:500px;"">
                                <p style=""font-size:50px; font-weight:bold;""
                                ></p>
                                <div style=""width:240px; margin: auto;"">
                                    <img src=""images/D36.png"" style= ""width:200px""alt=""img"">
                                </div>
                            </div>","82","","0","images/D36.png","","","","[""Random"",""Non-random""]"
"","","","","","html-slider-response","187","285899","0.0-181.0","zf3pb4n3kv","NaN","<div style=""width:500px;"">
                                <p style=""font-size:50px; font-weight:bold;""
                                ></p>
                                <div style=""width:240px; margin: auto;"">
                                    <img src=""images/D49.png"" style= ""width:200px""alt=""img"">
                                </div>
                            </div>","82","","0","images/D49.png","","","","[""Random"",""Non-random""]"
"","","","","","html-slider-response","188","287172","0.0-182.0","zf3pb4n3kv","NaN","<div style=""width:500px;"">
                                <p style=""font-size:50px; font-weight:bold;""
                                ></p>
