"success","timeout","failed_images","failed_audio","failed_video","trial_type","trial_index","time_elapsed","internal_node_id","subject_id","rt","stimulus","response","question_order","slider_start","image_path","practiceTrial","practiceTrialNum","correct","slider_labels"
"true","false","[]","[]","[]","preload","0","533","0.0-0.0","zj8pgunks0","","","","","","","","","",""
"","","","","","html-button-response","1","184799","0.0-1.0","zj8pgunks0","184268","<div style='text-align:center; font-size:20px; line-height:25px; width: 1200px;'>
                Welcome to our experiment! <br>
                <br>At the bottom of this screen, you will see a button that says 'Begin Experiment.
                <br>Please only click that button when you are ready to complete the 25 minute experiment in one sitting. <br>
                <br> Once you click that button, it will not be possible to restart the experiment. <br><br>","0","","","","","","",""
"true","","","","","fullscreen","2","188878","0.0-2.0","zj8pgunks0","3068","","","","","","","","",""
"","","","","","survey-multi-select","3","254058","0.0-3.0","zj8pgunks0","65175","","{""Consent"":[""<strong>I consent</strong>""]}","[0]","","","","","",""
"","","","","","html-button-response","4","265278","0.0-4.0","zj8pgunks0","11218","Welcome! <p> This experiment involves two parts: demographic information, followed by the experimental task.<p> It will take about 25 minutes to complete both parts.","0","","","","","","",""
"","","","","","survey-text","5","292283","0.0-5.0","zj8pgunks0","26997","","{""Age"":""18"",""Gender"":""Female"",""Race/ethnicity"":""White/Caucasian""}","","","","","","",""
"","","","","","html-slider-response","6","365394","0.0-6.0","zj8pgunks0","73108","
                <div style='text-align:center; height: auto; margin-left=-100px; margin-bottom: -20px; font-size:20px; line-height:5px; width: 1200px;'>
                    <br>During this experiment, you will see a series of textures, one at a time, like the ones below: 
                </div>
                    <br>
                    <br>
                    <img src=""anchoring_visual_textures.png"" alt=""img"" style=""max-width:1200px; margin-left: -10px;"">
                </div>
                <div style=""clear: both;""></div>
                </div>
                    <div style='text-align:center; margin-left=-100px; font-size:20px; line-height:20px; width: 1200px; margin-top: -50px;'>
                    
                    <br> For each texture, you will be asked to rate where you think it falls on each of the response scales with the following endpoints:
                    </div>
                            <div style=""text-align: center; width: 1400px; "">
                                <p style=""font-size:20px; line-height:5px; ""><b>Stripey</b> versus <b>Blobby</b></p>
                                <p style=""font-size:20px; line-height:5px; ""><b>Rectangular</b> versus <b>Rounded</b></p>
                                <p style=""font-size:20px;line-height:5px;""><b>Fine</b> versus <b>Coarse</b></p>
                                <p style=""font-size:20px;line-height:5px; ""><b>Smooth</b> versus <b>Rough</b></p>
                                <p style=""font-size:20px;line-height:5px; ""><b>Non-Random</b> versus <b>Random</b></p>
                                <p style=""font-size:20px;line-height:5px;""><b>Soft</b> versus <b>Hard</b></p>
                            </div>
                            <div style='text-align:center; font-size:20px; line-height:20px; width: 1400px;'>
                    
                    Each trial will include one texture and one response scale. You will be asked to make your rating by sliding the cursor along a slider response scale like the one below.
                    <br><br> Before beginning, please look at the textures and scales. For each scale, think about the texture you associate most with the left endpoint. When you see that texture for that response scale, please click near the left of the scale.
                    <br><br> Now, please think about the texture you associate most with the right endpoint of each scale. When you see that texture for that response scale, please click near the right of the scale. 
                    <br><br> If you think a texture is not strongly associated with either endpoint of the scale, please click near the midpoint of the scale. Please use the full range of the scale. 
                    <br><br> You will be asked to rate each texture for a given scale before moving on to the next scale.
                    <br><br> Please press the 'Continue' button for instructions on how to use the slider.                     <br><br>
                ","0","","0","visual_textures_anchoring.png","true","","",""
"","","","","","html-button-response","7","383649","0.0-7.0","zj8pgunks0","18253","<div style=""width:1200px; margin-top:-150px;""><p style=""text-align:center; font-size:24px;"">To move the slider, click and drag your cursor to the location of the scale where you would like to make your rating and then let go. <br><br> When you let go of the slider, your response will be recorded and the next trial will begin. <br><br><br>
                We are interested in your initial impressions of each texture and scale, so please go with your first intuition. <br><br>
                Before you begin the experiment, there will be four training trials for you to practice using the scale. <br><br><br><br></div>
                <div style=""width:1200px;""><p style=""text-align:center; font-size:20px;"">When you are ready to start the training trials, please click ""Continue"".</p></div>","0","","","","","","",""
"","","","","","html-slider-response","8","386557","0.0-8.0-0.0","zj8pgunks0","NaN","<div style=""width:500px;"">
                                <p style=""font-size:25px;"">Please move the slider all the way to the <br> right endpoint of the scale</p>

                                </div>
                            </div>","200","","0","","true","0","true",""
"","","","","","html-button-response","9","388075","0.0-8.0-1.0","zj8pgunks0","1008","<p align='center'><b>Good job!</b> Click on 'Continue' to proceed.</p>","0","","","","","","",""
"","","","","","html-slider-response","10","389972","0.0-9.0-0.0","zj8pgunks0","NaN","<div style=""width:500px;"">
                                <p style=""font-size:25px;"">Please move the slider all the way to the <br> left endpoint of the scale</p>

                                </div>
                            </div>","-200","","0","","true","1","true",""
"","","","","","html-button-response","11","391250","0.0-9.0-1.0","zj8pgunks0","764","<p align='center'><b>Good job!</b> Click on 'Continue' to proceed.</p>","0","","","","","","",""
"","","","","","html-slider-response","12","397758","0.0-10.0-0.0","zj8pgunks0","NaN","<div style=""width:500px;"">
                                <p style=""font-size:25px;"">Please move the slider halfway between the center and right endpoint of the scale</p>

                                </div>
                            </div>","99","","0","","true","2","true",""
"","","","","","html-button-response","13","399387","0.0-10.0-1.0","zj8pgunks0","1113","<p align='center'><b>Good job!</b> Click on 'Continue' to proceed.</p>","0","","","","","","",""
"","","","","","html-slider-response","14","403157","0.0-11.0-0.0","zj8pgunks0","NaN","<div style=""width:500px;"">
                                <p style=""font-size:25px;"">Please move the slider halfway between the center and left endpoint of the scale</p>

                                </div>
                            </div>","-108","","0","","true","3","true",""
"","","","","","html-button-response","15","404720","0.0-11.0-1.0","zj8pgunks0","1060","<p align='center'><b>Good job!</b> Click on 'Continue' to proceed.</p>","0","","","","","","",""
"","","","","","html-button-response","16","408885","0.0-12.0","zj8pgunks0","4161","<div style=""width:800px; margin-top:-300px;""><p style=""text-align:center; font-size:22px; line-height:25px;""""> Great job! You've completed the practice trials.</div>
                     <div style=""width:800px; margin-top:-20px;""><p style=""text-align:center""><br><br> In the following trials, you will be asked to rate textures on each scale one-by-one. <br> You will be given opportunities to take breaks when you have completed each block of trials. There are six total blocks of trials. <br><br> Please click continue to begin the main task.<br><br><br> </div>","0","","","","","","",""
"","","","","","html-button-response","17","416169","0.0-13.0","zj8pgunks0","7283","In the following trials, you will be asked to rate textures on the scale <b>Fine</b> versus <b>Coarse</b>. Please click 'Continue' when you are ready proceed.","0","","","","","","",""
"","","","","","html-slider-response","18","420293","0.0-14.0","zj8pgunks0","NaN","<div style=""width:500px;"">
                                <p style=""font-size:50px; font-weight:bold;""
                                ></p>
                                <div style=""width:240px; margin: auto;"">
                                    <img src=""images/D1.png"" style= ""width:200px""alt=""img"">
                                </div>
                            </div>","148","","0","images/D1.png","","","","[""Fine"",""Coarse""]"
"","","","","","html-slider-response","19","423023","0.0-15.0","zj8pgunks0","NaN","<div style=""width:500px;"">
                                <p style=""font-size:50px; font-weight:bold;""
                                ></p>
                                <div style=""width:240px; margin: auto;"">
                                    <img src=""images/D48.png"" style= ""width:200px""alt=""img"">
                                </div>
                            </div>","113","","0","images/D48.png","","","","[""Fine"",""Coarse""]"
"","","","","","html-slider-response","20","425854","0.0-16.0","zj8pgunks0","NaN","<div style=""width:500px;"">
                                <p style=""font-size:50px; font-weight:bold;""
                                ></p>
                                <div style=""width:240px; margin: auto;"">
                                    <img src=""images/D6.png"" style= ""width:200px""alt=""img"">
                                </div>
                            </div>","-186","","0","images/D6.png","","","","[""Fine"",""Coarse""]"
"","","","","","html-slider-response","21","428557","0.0-17.0","zj8pgunks0","NaN","<div style=""width:500px;"">
                                <p style=""font-size:50px; font-weight:bold;""
                                ></p>
                                <div style=""width:240px; margin: auto;"">
                                    <img src=""images/D87.png"" style= ""width:200px""alt=""img"">
                                </div>
                            </div>","-143","","0","images/D87.png","","","","[""Fine"",""Coarse""]"
"","","","","","html-slider-response","22","433539","0.0-18.0","zj8pgunks0","NaN","<div style=""width:500px;"">
                                <p style=""font-size:50px; font-weight:bold;""
                                ></p>
                                <div style=""width:240px; margin: auto;"">
                                    <img src=""images/D32.png"" style= ""width:200px""alt=""img"">
                                </div>
                            </div>","27","","0","images/D32.png","","","","[""Fine"",""Coarse""]"
"","","","","","html-slider-response","23","438054","0.0-19.0","zj8pgunks0","NaN","<div style=""width:500px;"">
                                <p style=""font-size:50px; font-weight:bold;""
                                ></p>
                                <div style=""width:240px; margin: auto;"">
                                    <img src=""images/D14.png"" style= ""width:200px""alt=""img"">
                                </div>
                            </div>","-200","","0","images/D14.png","","","","[""Fine"",""Coarse""]"
"","","","","","html-slider-response","24","440755","0.0-20.0","zj8pgunks0","NaN","<div style=""width:500px;"">
                                <p style=""font-size:50px; font-weight:bold;""
                                ></p>
                                <div style=""width:240px; margin: auto;"">
                                    <img src=""images/D24.png"" style= ""width:200px""alt=""img"">
                                </div>
                            </div>","-17","","0","images/D24.png","","","","[""Fine"",""Coarse""]"
"","","","","","html-slider-response","25","444286","0.0-21.0","zj8pgunks0","NaN","<div style=""width:500px;"">
                                <p style=""font-size:50px; font-weight:bold;""
                                ></p>
                                <div style=""width:240px; margin: auto;"">
                                    <img src=""images/D68.png"" style= ""width:200px""alt=""img"">
                                </div>
                            </div>","33","","0","images/D68.png","","","","[""Fine"",""Coarse""]"
"","","","","","html-slider-response","26","446503","0.0-22.0","zj8pgunks0","NaN","<div style=""width:500px;"">
                                <p style=""font-size:50px; font-weight:bold;""
                                ></p>
                                <div style=""width:240px; margin: auto;"">
                                    <img src=""images/D79.png"" style= ""width:200px""alt=""img"">
                                </div>
                            </div>","-150","","0","images/D79.png","","","","[""Fine"",""Coarse""]"
"","","","","","html-slider-response","27","450691","0.0-23.0","zj8pgunks0","NaN","<div style=""width:500px;"">
                                <p style=""font-size:50px; font-weight:bold;""
                                ></p>
                                <div style=""width:240px; margin: auto;"">
                                    <img src=""images/D94.png"" style= ""width:200px""alt=""img"">
                                </div>
                            </div>","152","","0","images/D94.png","","","","[""Fine"",""Coarse""]"
"","","","","","html-slider-response","28","453070","0.0-24.0","zj8pgunks0","NaN","<div style=""width:500px;"">
                                <p style=""font-size:50px; font-weight:bold;""
                                ></p>
                                <div style=""width:240px; margin: auto;"">
                                    <img src=""images/D75.png"" style= ""width:200px""alt=""img"">
                                </div>
                            </div>","126","","0","images/D75.png","","","","[""Fine"",""Coarse""]"
"","","","","","html-slider-response","29","456778","0.0-25.0","zj8pgunks0","NaN","<div style=""width:500px;"">
                                <p style=""font-size:50px; font-weight:bold;""
                                ></p>
                                <div style=""width:240px; margin: auto;"">
                                    <img src=""images/D85.png"" style= ""width:200px""alt=""img"">
                                </div>
                            </div>","-56","","0","images/D85.png","","","","[""Fine"",""Coarse""]"
"","","","","","html-slider-response","30","459082","0.0-26.0","zj8pgunks0","NaN","<div style=""width:500px;"">
                                <p style=""font-size:50px; font-weight:bold;""
                                ></p>
                                <div style=""width:240px; margin: auto;"">
                                    <img src=""images/D55.png"" style= ""width:200px""alt=""img"">
                                </div>
                            </div>","-178","","0","images/D55.png","","","","[""Fine"",""Coarse""]"
"","","","","","html-slider-response","31","461284","0.0-27.0","zj8pgunks0","NaN","<div style=""width:500px;"">
                                <p style=""font-size:50px; font-weight:bold;""
                                ></p>
                                <div style=""width:240px; margin: auto;"">
                                    <img src=""images/D25.png"" style= ""width:200px""alt=""img"">
                                </div>
                            </div>","200","","0","images/D25.png","","","","[""Fine"",""Coarse""]"
"","","","","","html-slider-response","32","464750","0.0-28.0","zj8pgunks0","NaN","<div style=""width:500px;"">
                                <p style=""font-size:50px; font-weight:bold;""
                                ></p>
                                <div style=""width:240px; margin: auto;"">
                                    <img src=""images/D35.png"" style= ""width:200px""alt=""img"">
                                </div>
                            </div>","-32","","0","images/D35.png","","","","[""Fine"",""Coarse""]"
"","","","","","html-slider-response","33","466996","0.0-29.0","zj8pgunks0","NaN","<div style=""width:500px;"">
                                <p style=""font-size:50px; font-weight:bold;""
                                ></p>
                                <div style=""width:240px; margin: auto;"">
                                    <img src=""images/D17.png"" style= ""width:200px""alt=""img"">
                                </div>
                            </div>","-200","","0","images/D17.png","","","","[""Fine"",""Coarse""]"
"","","","","","html-slider-response","34","470549","0.0-30.0","zj8pgunks0","NaN","<div style=""width:500px;"">
                                <p style=""font-size:50px; font-weight:bold;""
                                ></p>
                                <div style=""width:240px; margin: auto;"">
                                    <img src=""images/D34.png"" style= ""width:200px""alt=""img"">
                                </div>
                            </div>","28","","0","images/D34.png","","","","[""Fine"",""Coarse""]"
"","","","","","html-slider-response","35","472384","0.0-31.0","zj8pgunks0","NaN","<div style=""width:500px;"">
                                <p style=""font-size:50px; font-weight:bold;""
                                ></p>
                                <div style=""width:240px; margin: auto;"">
                                    <img src=""images/D49.png"" style= ""width:200px""alt=""img"">
                                </div>
                            </div>","-200","","0","images/D49.png","","","","[""Fine"",""Coarse""]"
"","","","","","html-slider-response","36","475115","0.0-32.0","zj8pgunks0","NaN","<div style=""width:500px;"">
                                <p style=""font-size:50px; font-weight:bold;""
                                ></p>
                                <div style=""width:240px; margin: auto;"">
                                    <img src=""images/D8.png"" style= ""width:200px""alt=""img"">
                                </div>
                            </div>","109","","0","images/D8.png","","","","[""Fine"",""Coarse""]"
"","","","","","html-slider-response","37","478057","0.0-33.0","zj8pgunks0","NaN","<div style=""width:500px;"">
                                <p style=""font-size:50px; font-weight:bold;""
                                ></p>
                                <div style=""width:240px; margin: auto;"">
                                    <img src=""images/D66.png"" style= ""width:200px""alt=""img"">
                                </div>
                            </div>","126","","0","images/D66.png","","","","[""Fine"",""Coarse""]"
"","","","","","html-slider-response","38","479842","0.0-34.0","zj8pgunks0","NaN","<div style=""width:500px;"">
                                <p style=""font-size:50px; font-weight:bold;""
                                ></p>
                                <div style=""width:240px; margin: auto;"">
                                    <img src=""images/D21.png"" style= ""width:200px""alt=""img"">
                                </div>
                            </div>","-200","","0","images/D21.png","","","","[""Fine"",""Coarse""]"
"","","","","","html-slider-response","39","481964","0.0-35.0","zj8pgunks0","NaN","<div style=""width:500px;"">
                                <p style=""font-size:50px; font-weight:bold;""
                                ></p>
                                <div style=""width:240px; margin: auto;"">
                                    <img src=""images/D77.png"" style= ""width:200px""alt=""img"">
                                </div>
                            </div>","-200","","0","images/D77.png","","","","[""Fine"",""Coarse""]"
"","","","","","html-slider-response","40","484623","0.0-36.0","zj8pgunks0","NaN","<div style=""width:500px;"">
                                <p style=""font-size:50px; font-weight:bold;""
                                ></p>
                                <div style=""width:240px; margin: auto;"">
                                    <img src=""images/D4.png"" style= ""width:200px""alt=""img"">
                                </div>
                            </div>","49","","0","images/D4.png","","","","[""Fine"",""Coarse""]"
"","","","","","html-slider-response","41","486814","0.0-37.0","zj8pgunks0","NaN","<div style=""width:500px;"">
                                <p style=""font-size:50px; font-weight:bold;""
                                ></p>
                                <div style=""width:240px; margin: auto;"">
                                    <img src=""images/D56.png"" style= ""width:200px""alt=""img"">
                                </div>
                            </div>","154","","0","images/D56.png","","","","[""Fine"",""Coarse""]"
"","","","","","html-slider-response","42","490083","0.0-38.0","zj8pgunks0","NaN","<div style=""width:500px;"">
                                <p style=""font-size:50px; font-weight:bold;""
                                ></p>
                                <div style=""width:240px; margin: auto;"">
                                    <img src=""images/D18.png"" style= ""width:200px""alt=""img"">
                                </div>
                            </div>","180","","0","images/D18.png","","","","[""Fine"",""Coarse""]"
"","","","","","html-slider-response","43","493147","0.0-39.0","zj8pgunks0","NaN","<div style=""width:500px;"">
                                <p style=""font-size:50px; font-weight:bold;""
                                ></p>
                                <div style=""width:240px; margin: auto;"">
                                    <img src=""images/D76.png"" style= ""width:200px""alt=""img"">
                                </div>
                            </div>","41","","0","images/D76.png","","","","[""Fine"",""Coarse""]"
"","","","","","html-slider-response","44","496582","0.0-40.0","zj8pgunks0","NaN","<div style=""width:500px;"">
                                <p style=""font-size:50px; font-weight:bold;""
                                ></p>
                                <div style=""width:240px; margin: auto;"">
                                    <img src=""images/D57.png"" style= ""width:200px""alt=""img"">
                                </div>
                            </div>","15","","0","images/D57.png","","","","[""Fine"",""Coarse""]"
"","","","","","html-slider-response","45","498949","0.0-41.0","zj8pgunks0","NaN","<div style=""width:500px;"">
                                <p style=""font-size:50px; font-weight:bold;""
                                ></p>
                                <div style=""width:240px; margin: auto;"">
                                    <img src=""images/D105.png"" style= ""width:200px""alt=""img"">
                                </div>
                            </div>","-14","","0","images/D105.png","","","","[""Fine"",""Coarse""]"
"","","","","","html-slider-response","46","503505","0.0-42.0","zj8pgunks0","NaN","<div style=""width:500px;"">
                                <p style=""font-size:50px; font-weight:bold;""
                                ></p>
                                <div style=""width:240px; margin: auto;"">
                                    <img src=""images/D104.png"" style= ""width:200px""alt=""img"">
                                </div>
                            </div>","-18","","0","images/D104.png","","","","[""Fine"",""Coarse""]"
"","","","","","html-slider-response","47","506013","0.0-43.0","zj8pgunks0","NaN","<div style=""width:500px;"">
                                <p style=""font-size:50px; font-weight:bold;""
                                ></p>
                                <div style=""width:240px; margin: auto;"">
                                    <img src=""images/D64.png"" style= ""width:200px""alt=""img"">
                                </div>
                            </div>","26","","0","images/D64.png","","","","[""Fine"",""Coarse""]"
"","","","","","html-slider-response","48","508374","0.0-44.0","zj8pgunks0","NaN","<div style=""width:500px;"">
                                <p style=""font-size:50px; font-weight:bold;""
                                ></p>
                                <div style=""width:240px; margin: auto;"">
                                    <img src=""images/D16.png"" style= ""width:200px""alt=""img"">
                                </div>
                            </div>","-177","","0","images/D16.png","","","","[""Fine"",""Coarse""]"
"","","","","","html-slider-response","49","510956","0.0-45.0","zj8pgunks0","NaN","<div style=""width:500px;"">
                                <p style=""font-size:50px; font-weight:bold;""
                                ></p>
                                <div style=""width:240px; margin: auto;"">
                                    <img src=""images/D47.png"" style= ""width:200px""alt=""img"">
                                </div>
                            </div>","82","","0","images/D47.png","","","","[""Fine"",""Coarse""]"
"","","","","","html-slider-response","50","513187","0.0-46.0","zj8pgunks0","NaN","<div style=""width:500px;"">
                                <p style=""font-size:50px; font-weight:bold;""
                                ></p>
                                <div style=""width:240px; margin: auto;"">
                                    <img src=""images/D92.png"" style= ""width:200px""alt=""img"">
                                </div>
                            </div>","71","","0","images/D92.png","","","","[""Fine"",""Coarse""]"
"","","","","","html-slider-response","51","515848","0.0-47.0","zj8pgunks0","NaN","<div style=""width:500px;"">
                                <p style=""font-size:50px; font-weight:bold;""
                                ></p>
                                <div style=""width:240px; margin: auto;"">
                                    <img src=""images/D22.png"" style= ""width:200px""alt=""img"">
                                </div>
                            </div>","73","","0","images/D22.png","","","","[""Fine"",""Coarse""]"
"","","","","","html-slider-response","52","519901","0.0-48.0","zj8pgunks0","NaN","<div style=""width:500px;"">
                                <p style=""font-size:50px; font-weight:bold;""
                                ></p>
                                <div style=""width:240px; margin: auto;"">
                                    <img src=""images/D36.png"" style= ""width:200px""alt=""img"">
                                </div>
                            </div>","-122","","0","images/D36.png","","","","[""Fine"",""Coarse""]"
"","","","","","html-slider-response","53","523559","0.0-49.0","zj8pgunks0","NaN","<div style=""width:500px;"">
                                <p style=""font-size:50px; font-weight:bold;""
                                ></p>
                                <div style=""width:240px; margin: auto;"">
                                    <img src=""images/D65.png"" style= ""width:200px""alt=""img"">
                                </div>
                            </div>","125","","0","images/D65.png","","","","[""Fine"",""Coarse""]"
"","","","","","html-slider-response","54","525640","0.0-50.0","zj8pgunks0","NaN","<div style=""width:500px;"">
                                <p style=""font-size:50px; font-weight:bold;""
                                ></p>
                                <div style=""width:240px; margin: auto;"">
                                    <img src=""images/D96.png"" style= ""width:200px""alt=""img"">
                                </div>
                            </div>","174","","0","images/D96.png","","","","[""Fine"",""Coarse""]"
"","","","","","html-slider-response","55","530157","0.0-51.0","zj8pgunks0","NaN","<div style=""width:500px;"">
                                <p style=""font-size:50px; font-weight:bold;""
                                ></p>
                                <div style=""width:240px; margin: auto;"">
                                    <img src=""images/D46.png"" style= ""width:200px""alt=""img"">
                                </div>
                            </div>","-54","","0","images/D46.png","","","","[""Fine"",""Coarse""]"
"","","","","","html-slider-response","56","532683","0.0-52.0","zj8pgunks0","NaN","<div style=""width:500px;"">
                                <p style=""font-size:50px; font-weight:bold;""
                                ></p>
                                <div style=""width:240px; margin: auto;"">
                                    <img src=""images/D29.png"" style= ""width:200px""alt=""img"">
                                </div>
                            </div>","41","","0","images/D29.png","","","","[""Fine"",""Coarse""]"
"","","","","","html-slider-response","57","535430","0.0-53.0","zj8pgunks0","NaN","<div style=""width:500px;"">
                                <p style=""font-size:50px; font-weight:bold;""
                                ></p>
                                <div style=""width:240px; margin: auto;"">
                                    <img src=""images/D37.png"" style= ""width:200px""alt=""img"">
                                </div>
                            </div>","94","","0","images/D37.png","","","","[""Fine"",""Coarse""]"
"","","","","","html-slider-response","58","537786","0.0-54.0","zj8pgunks0","NaN","<div style=""width:500px;"">
                                <p style=""font-size:50px; font-weight:bold;""
                                ></p>
                                <div style=""width:240px; margin: auto;"">
                                    <img src=""images/D26.png"" style= ""width:200px""alt=""img"">
                                </div>
                            </div>","141","","0","images/D26.png","","","","[""Fine"",""Coarse""]"
"","","","","","html-slider-response","59","540084","0.0-55.0","zj8pgunks0","NaN","<div style=""width:500px;"">
                                <p style=""font-size:50px; font-weight:bold;""
                                ></p>
                                <div style=""width:240px; margin: auto;"">
                                    <img src=""images/D19.png"" style= ""width:200px""alt=""img"">
                                </div>
                            </div>","20","","0","images/D19.png","","","","[""Fine"",""Coarse""]"
"","","","","","html-slider-response","60","542447","0.0-56.0","zj8pgunks0","NaN","<div style=""width:500px;"">
                                <p style=""font-size:50px; font-weight:bold;""
                                ></p>
                                <div style=""width:240px; margin: auto;"">
                                    <img src=""images/D111.png"" style= ""width:200px""alt=""img"">
                                </div>
                            </div>","57","","0","images/D111.png","","","","[""Fine"",""Coarse""]"
"","","","","","html-slider-response","61","544501","0.0-57.0","zj8pgunks0","NaN","<div style=""width:500px;"">
                                <p style=""font-size:50px; font-weight:bold;""
                                ></p>
                                <div style=""width:240px; margin: auto;"">
                                    <img src=""images/D53.png"" style= ""width:200px""alt=""img"">
                                </div>
                            </div>","-182","","0","images/D53.png","","","","[""Fine"",""Coarse""]"
"","","","","","html-slider-response","62","546714","0.0-58.0","zj8pgunks0","NaN","<div style=""width:500px;"">
                                <p style=""font-size:50px; font-weight:bold;""
                                ></p>
                                <div style=""width:240px; margin: auto;"">
                                    <img src=""images/D9.png"" style= ""width:200px""alt=""img"">
                                </div>
                            </div>","18","","0","images/D9.png","","","","[""Fine"",""Coarse""]"
"","","","","","html-slider-response","63","548944","0.0-59.0","zj8pgunks0","NaN","<div style=""width:500px;"">
                                <p style=""font-size:50px; font-weight:bold;""
                                ></p>
                                <div style=""width:240px; margin: auto;"">
                                    <img src=""images/D95.png"" style= ""width:200px""alt=""img"">
                                </div>
                            </div>","136","","0","images/D95.png","","","","[""Fine"",""Coarse""]"
"","","","","","html-slider-response","64","553649","0.0-60.0","zj8pgunks0","NaN","<div style=""width:500px;"">
                                <p style=""font-size:50px; font-weight:bold;""
                                ></p>
                                <div style=""width:240px; margin: auto;"">
                                    <img src=""images/D78.png"" style= ""width:200px""alt=""img"">
                                </div>
                            </div>","-200","","0","images/D78.png","","","","[""Fine"",""Coarse""]"
"","","","","","html-slider-response","65","557358","0.0-61.0","zj8pgunks0","NaN","<div style=""width:500px;"">
                                <p style=""font-size:50px; font-weight:bold;""
                                ></p>
                                <div style=""width:240px; margin: auto;"">
                                    <img src=""images/D83.png"" style= ""width:200px""alt=""img"">
                                </div>
                            </div>","-24","","0","images/D83.png","","","","[""Fine"",""Coarse""]"
"","","","","","html-slider-response","66","562163","0.0-62.0","zj8pgunks0","NaN","<div style=""width:500px;"">
                                <p style=""font-size:50px; font-weight:bold;""
                                ></p>
                                <div style=""width:240px; margin: auto;"">
                                    <img src=""images/D81.png"" style= ""width:200px""alt=""img"">
                                </div>
                            </div>","21","","0","images/D81.png","","","","[""Fine"",""Coarse""]"
"","","","","","html-slider-response","67","564263","0.0-63.0","zj8pgunks0","NaN","<div style=""width:500px;"">
                                <p style=""font-size:50px; font-weight:bold;""
                                ></p>
                                <div style=""width:240px; margin: auto;"">
                                    <img src=""images/D102.png"" style= ""width:200px""alt=""img"">
                                </div>
                            </div>","47","","0","images/D102.png","","","","[""Fine"",""Coarse""]"
"","","","","","html-slider-response","68","566676","0.0-64.0","zj8pgunks0","NaN","<div style=""width:500px;"">
                                <p style=""font-size:50px; font-weight:bold;""
                                ></p>
                                <div style=""width:240px; margin: auto;"">
                                    <img src=""images/D82.png"" style= ""width:200px""alt=""img"">
                                </div>
                            </div>","37","","0","images/D82.png","","","","[""Fine"",""Coarse""]"
"","","","","","html-slider-response","69","568837","0.0-65.0","zj8pgunks0","NaN","<div style=""width:500px;"">
                                <p style=""font-size:50px; font-weight:bold;""
                                ></p>
                                <div style=""width:240px; margin: auto;"">
                                    <img src=""images/D103.png"" style= ""width:200px""alt=""img"">
                                </div>
                            </div>","-26","","0","images/D103.png","","","","[""Fine"",""Coarse""]"
"","","","","","html-slider-response","70","570715","0.0-66.0","zj8pgunks0","NaN","<div style=""width:500px;"">
                                <p style=""font-size:50px; font-weight:bold;""
                                ></p>
                                <div style=""width:240px; margin: auto;"">
                                    <img src=""images/D11.png"" style= ""width:200px""alt=""img"">
                                </div>
                            </div>","-62","","0","images/D11.png","","","","[""Fine"",""Coarse""]"
"","","","","","html-slider-response","71","574612","0.0-67.0","zj8pgunks0","NaN","<div style=""width:500px;"">
                                <p style=""font-size:50px; font-weight:bold;""
                                ></p>
                                <div style=""width:240px; margin: auto;"">
                                    <img src=""images/D20.png"" style= ""width:200px""alt=""img"">
                                </div>
                            </div>","50","","0","images/D20.png","","","","[""Fine"",""Coarse""]"
"","","","","","html-slider-response","72","576886","0.0-68.0","zj8pgunks0","NaN","<div style=""width:500px;"">
                                <p style=""font-size:50px; font-weight:bold;""
                                ></p>
                                <div style=""width:240px; margin: auto;"">
                                    <img src=""images/D3.png"" style= ""width:200px""alt=""img"">
                                </div>
                            </div>","72","","0","images/D3.png","","","","[""Fine"",""Coarse""]"
"","","","","","html-slider-response","73","579097","0.0-69.0","zj8pgunks0","NaN","<div style=""width:500px;"">
                                <p style=""font-size:50px; font-weight:bold;""
                                ></p>
                                <div style=""width:240px; margin: auto;"">
                                    <img src=""images/D74.png"" style= ""width:200px""alt=""img"">
                                </div>
                            </div>","152","","0","images/D74.png","","","","[""Fine"",""Coarse""]"
"","","","","","html-slider-response","74","581705","0.0-70.0","zj8pgunks0","NaN","<div style=""width:500px;"">
                                <p style=""font-size:50px; font-weight:bold;""
                                ></p>
                                <div style=""width:240px; margin: auto;"">
                                    <img src=""images/D51.png"" style= ""width:200px""alt=""img"">
                                </div>
                            </div>","-21","","0","images/D51.png","","","","[""Fine"",""Coarse""]"
"","","","","","html-slider-response","75","589280","0.0-71.0","zj8pgunks0","NaN","<div style=""width:500px;"">
                                <p style=""font-size:50px; font-weight:bold;""
                                ></p>
                                <div style=""width:240px; margin: auto;"">
                                    <img src=""images/D80.png"" style= ""width:200px""alt=""img"">
                                </div>
                            </div>","23","","0","images/D80.png","","","","[""Fine"",""Coarse""]"
"","","","","","html-slider-response","76","592516","0.0-72.0","zj8pgunks0","NaN","<div style=""width:500px;"">
                                <p style=""font-size:50px; font-weight:bold;""
                                ></p>
                                <div style=""width:240px; margin: auto;"">
                                    <img src=""images/D52.png"" style= ""width:200px""alt=""img"">
                                </div>
                            </div>","-58","","0","images/D52.png","","","","[""Fine"",""Coarse""]"
"","","","","","html-slider-response","77","594831","0.0-73.0","zj8pgunks0","NaN","<div style=""width:500px;"">
                                <p style=""font-size:50px; font-weight:bold;""
                                ></p>
                                <div style=""width:240px; margin: auto;"">
                                    <img src=""images/D106.png"" style= ""width:200px""alt=""img"">
                                </div>
                            </div>","-74","","0","images/D106.png","","","","[""Fine"",""Coarse""]"
"","","","","","html-slider-response","78","597766","0.0-74.0","zj8pgunks0","NaN","<div style=""width:500px;"">
                                <p style=""font-size:50px; font-weight:bold;""
                                ></p>
                                <div style=""width:240px; margin: auto;"">
                                    <img src=""images/D101.png"" style= ""width:200px""alt=""img"">
                                </div>
                            </div>","62","","0","images/D101.png","","","","[""Fine"",""Coarse""]"
"","","","","","html-slider-response","79","600601","0.0-75.0","zj8pgunks0","NaN","<div style=""width:500px;"">
                                <p style=""font-size:50px; font-weight:bold;""
                                ></p>
                                <div style=""width:240px; margin: auto;"">
                                    <img src=""images/D84.png"" style= ""width:200px""alt=""img"">
                                </div>
                            </div>","72","","0","images/D84.png","","","","[""Fine"",""Coarse""]"
"","","","","","html-button-response","80","605683","0.0-76.0","zj8pgunks0","4565","You have completed the first block of trials out of six. Please click 'Continue' when you are ready proceed.","0","","","","","","",""
"","","","","","html-button-response","81","609894","0.0-77.0","zj8pgunks0","4210","In the following trials, you will be asked to rate textures on the scale <b>Rectangular</b> versus <b>Rounded</b>. Please click 'Continue' when you are ready proceed.","0","","","","","","",""
"","","","","","html-slider-response","82","614619","0.0-78.0","zj8pgunks0","NaN","<div style=""width:500px;"">
                                <p style=""font-size:50px; font-weight:bold;""
                                ></p>
                                <div style=""width:240px; margin: auto;"">
                                    <img src=""images/D9.png"" style= ""width:200px""alt=""img"">
                                </div>
                            </div>","75","","0","images/D9.png","","","","[""Rectangular"",""Rounded""]"
"","","","","","html-slider-response","83","617193","0.0-79.0","zj8pgunks0","NaN","<div style=""width:500px;"">
                                <p style=""font-size:50px; font-weight:bold;""
                                ></p>
                                <div style=""width:240px; margin: auto;"">
                                    <img src=""images/D74.png"" style= ""width:200px""alt=""img"">
                                </div>
                            </div>","178","","0","images/D74.png","","","","[""Rectangular"",""Rounded""]"
"","","","","","html-slider-response","84","619738","0.0-80.0","zj8pgunks0","NaN","<div style=""width:500px;"">
                                <p style=""font-size:50px; font-weight:bold;""
                                ></p>
                                <div style=""width:240px; margin: auto;"">
                                    <img src=""images/D106.png"" style= ""width:200px""alt=""img"">
                                </div>
                            </div>","-200","","0","images/D106.png","","","","[""Rectangular"",""Rounded""]"
"","","","","","html-slider-response","85","623352","0.0-81.0","zj8pgunks0","NaN","<div style=""width:500px;"">
                                <p style=""font-size:50px; font-weight:bold;""
                                ></p>
                                <div style=""width:240px; margin: auto;"">
                                    <img src=""images/D103.png"" style= ""width:200px""alt=""img"">
                                </div>
                            </div>","-154","","0","images/D103.png","","","","[""Rectangular"",""Rounded""]"
"","","","","","html-slider-response","86","627115","0.0-82.0","zj8pgunks0","NaN","<div style=""width:500px;"">
                                <p style=""font-size:50px; font-weight:bold;""
                                ></p>
                                <div style=""width:240px; margin: auto;"">
                                    <img src=""images/D84.png"" style= ""width:200px""alt=""img"">
                                </div>
                            </div>","-46","","0","images/D84.png","","","","[""Rectangular"",""Rounded""]"
"","","","","","html-slider-response","87","629147","0.0-83.0","zj8pgunks0","NaN","<div style=""width:500px;"">
                                <p style=""font-size:50px; font-weight:bold;""
                                ></p>
                                <div style=""width:240px; margin: auto;"">
                                    <img src=""images/D26.png"" style= ""width:200px""alt=""img"">
                                </div>
                            </div>","-200","","0","images/D26.png","","","","[""Rectangular"",""Rounded""]"
"","","","","","html-slider-response","88","631780","0.0-84.0","zj8pgunks0","NaN","<div style=""width:500px;"">
                                <p style=""font-size:50px; font-weight:bold;""
                                ></p>
                                <div style=""width:240px; margin: auto;"">
                                    <img src=""images/D3.png"" style= ""width:200px""alt=""img"">
                                </div>
                            </div>","26","","0","images/D3.png","","","","[""Rectangular"",""Rounded""]"
"","","","","","html-slider-response","89","633676","0.0-85.0","zj8pgunks0","NaN","<div style=""width:500px;"">
                                <p style=""font-size:50px; font-weight:bold;""
                                ></p>
                                <div style=""width:240px; margin: auto;"">
                                    <img src=""images/D95.png"" style= ""width:200px""alt=""img"">
                                </div>
                            </div>","-200","","0","images/D95.png","","","","[""Rectangular"",""Rounded""]"
"","","","","","html-slider-response","90","635950","0.0-86.0","zj8pgunks0","NaN","<div style=""width:500px;"">
                                <p style=""font-size:50px; font-weight:bold;""
                                ></p>
                                <div style=""width:240px; margin: auto;"">
                                    <img src=""images/D48.png"" style= ""width:200px""alt=""img"">
                                </div>
                            </div>","200","","0","images/D48.png","","","","[""Rectangular"",""Rounded""]"
"","","","","","html-slider-response","91","637844","0.0-87.0","zj8pgunks0","NaN","<div style=""width:500px;"">
                                <p style=""font-size:50px; font-weight:bold;""
                                ></p>
                                <div style=""width:240px; margin: auto;"">
                                    <img src=""images/D49.png"" style= ""width:200px""alt=""img"">
                                </div>
                            </div>","-200","","0","images/D49.png","","","","[""Rectangular"",""Rounded""]"
"","","","","","html-slider-response","92","641050","0.0-88.0","zj8pgunks0","NaN","<div style=""width:500px;"">
                                <p style=""font-size:50px; font-weight:bold;""
                                ></p>
                                <div style=""width:240px; margin: auto;"">
                                    <img src=""images/D34.png"" style= ""width:200px""alt=""img"">
                                </div>
                            </div>","88","","0","images/D34.png","","","","[""Rectangular"",""Rounded""]"
"","","","","","html-slider-response","93","643218","0.0-89.0","zj8pgunks0","NaN","<div style=""width:500px;"">
                                <p style=""font-size:50px; font-weight:bold;""
                                ></p>
                                <div style=""width:240px; margin: auto;"">
                                    <img src=""images/D94.png"" style= ""width:200px""alt=""img"">
                                </div>
                            </div>","-200","","0","images/D94.png","","","","[""Rectangular"",""Rounded""]"
"","","","","","html-slider-response","94","646517","0.0-90.0","zj8pgunks0","NaN","<div style=""width:500px;"">
                                <p style=""font-size:50px; font-weight:bold;""
                                ></p>
                                <div style=""width:240px; margin: auto;"">
                                    <img src=""images/D4.png"" style= ""width:200px""alt=""img"">
                                </div>
                            </div>","58","","0","images/D4.png","","","","[""Rectangular"",""Rounded""]"
"","","","","","html-slider-response","95","648818","0.0-91.0","zj8pgunks0","NaN","<div style=""width:500px;"">
                                <p style=""font-size:50px; font-weight:bold;""
                                ></p>
                                <div style=""width:240px; margin: auto;"">
                                    <img src=""images/D76.png"" style= ""width:200px""alt=""img"">
                                </div>
                            </div>","-139","","0","images/D76.png","","","","[""Rectangular"",""Rounded""]"
"","","","","","html-slider-response","96","651501","0.0-92.0","zj8pgunks0","NaN","<div style=""width:500px;"">
                                <p style=""font-size:50px; font-weight:bold;""
                                ></p>
                                <div style=""width:240px; margin: auto;"">
                                    <img src=""images/D37.png"" style= ""width:200px""alt=""img"">
                                </div>
                            </div>","-39","","0","images/D37.png","","","","[""Rectangular"",""Rounded""]"
"","","","","","html-slider-response","97","653478","0.0-93.0","zj8pgunks0","NaN","<div style=""width:500px;"">
                                <p style=""font-size:50px; font-weight:bold;""
                                ></p>
                                <div style=""width:240px; margin: auto;"">
                                    <img src=""images/D64.png"" style= ""width:200px""alt=""img"">
                                </div>
                            </div>","-200","","0","images/D64.png","","","","[""Rectangular"",""Rounded""]"
"","","","","","html-slider-response","98","657785","0.0-94.0","zj8pgunks0","NaN","<div style=""width:500px;"">
                                <p style=""font-size:50px; font-weight:bold;""
                                ></p>
                                <div style=""width:240px; margin: auto;"">
                                    <img src=""images/D102.png"" style= ""width:200px""alt=""img"">
                                </div>
                            </div>","95","","0","images/D102.png","","","","[""Rectangular"",""Rounded""]"
"","","","","","html-slider-response","99","660515","0.0-95.0","zj8pgunks0","NaN","<div style=""width:500px;"">
                                <p style=""font-size:50px; font-weight:bold;""
                                ></p>
                                <div style=""width:240px; margin: auto;"">
                                    <img src=""images/D85.png"" style= ""width:200px""alt=""img"">
                                </div>
                            </div>","-134","","0","images/D85.png","","","","[""Rectangular"",""Rounded""]"
"","","","","","html-slider-response","100","662613","0.0-96.0","zj8pgunks0","NaN","<div style=""width:500px;"">
                                <p style=""font-size:50px; font-weight:bold;""
                                ></p>
                                <div style=""width:240px; margin: auto;"">
                                    <img src=""images/D65.png"" style= ""width:200px""alt=""img"">
                                </div>
                            </div>","-200","","0","images/D65.png","","","","[""Rectangular"",""Rounded""]"
"","","","","","html-slider-response","101","665282","0.0-97.0","zj8pgunks0","NaN","<div style=""width:500px;"">
                                <p style=""font-size:50px; font-weight:bold;""
                                ></p>
                                <div style=""width:240px; margin: auto;"">
                                    <img src=""images/D83.png"" style= ""width:200px""alt=""img"">
                                </div>
                            </div>","-154","","0","images/D83.png","","","","[""Rectangular"",""Rounded""]"
"","","","","","html-slider-response","102","671729","0.0-98.0","zj8pgunks0","NaN","<div style=""width:500px;"">
                                <p style=""font-size:50px; font-weight:bold;""
                                ></p>
                                <div style=""width:240px; margin: auto;"">
                                    <img src=""images/D77.png"" style= ""width:200px""alt=""img"">
                                </div>
                            </div>","-76","","0","images/D77.png","","","","[""Rectangular"",""Rounded""]"
"","","","","","html-slider-response","103","673883","0.0-99.0","zj8pgunks0","NaN","<div style=""width:500px;"">
                                <p style=""font-size:50px; font-weight:bold;""
                                ></p>
                                <div style=""width:240px; margin: auto;"">
                                    <img src=""images/D21.png"" style= ""width:200px""alt=""img"">
                                </div>
                            </div>","-56","","0","images/D21.png","","","","[""Rectangular"",""Rounded""]"
"","","","","","html-slider-response","104","676967","0.0-100.0","zj8pgunks0","NaN","<div style=""width:500px;"">
                                <p style=""font-size:50px; font-weight:bold;""
                                ></p>
                                <div style=""width:240px; margin: auto;"">
                                    <img src=""images/D57.png"" style= ""width:200px""alt=""img"">
                                </div>
                            </div>","56","","0","images/D57.png","","","","[""Rectangular"",""Rounded""]"
"","","","","","html-slider-response","105","678857","0.0-101.0","zj8pgunks0","NaN","<div style=""width:500px;"">
                                <p style=""font-size:50px; font-weight:bold;""
                                ></p>
                                <div style=""width:240px; margin: auto;"">
                                    <img src=""images/D68.png"" style= ""width:200px""alt=""img"">
                                </div>
                            </div>","-94","","0","images/D68.png","","","","[""Rectangular"",""Rounded""]"
"","","","","","html-slider-response","106","680716","0.0-102.0","zj8pgunks0","NaN","<div style=""width:500px;"">
                                <p style=""font-size:50px; font-weight:bold;""
                                ></p>
                                <div style=""width:240px; margin: auto;"">
                                    <img src=""images/D101.png"" style= ""width:200px""alt=""img"">
                                </div>
                            </div>","126","","0","images/D101.png","","","","[""Rectangular"",""Rounded""]"
"","","","","","html-slider-response","107","682780","0.0-103.0","zj8pgunks0","NaN","<div style=""width:500px;"">
                                <p style=""font-size:50px; font-weight:bold;""
                                ></p>
                                <div style=""width:240px; margin: auto;"">
                                    <img src=""images/D14.png"" style= ""width:200px""alt=""img"">
                                </div>
                            </div>","-65","","0","images/D14.png","","","","[""Rectangular"",""Rounded""]"
"","","","","","html-slider-response","108","686715","0.0-104.0","zj8pgunks0","NaN","<div style=""width:500px;"">
                                <p style=""font-size:50px; font-weight:bold;""
                                ></p>
                                <div style=""width:240px; margin: auto;"">
                                    <img src=""images/D18.png"" style= ""width:200px""alt=""img"">
                                </div>
                            </div>","-42","","0","images/D18.png","","","","[""Rectangular"",""Rounded""]"
"","","","","","html-slider-response","109","689063","0.0-105.0","zj8pgunks0","NaN","<div style=""width:500px;"">
                                <p style=""font-size:50px; font-weight:bold;""
                                ></p>
                                <div style=""width:240px; margin: auto;"">
                                    <img src=""images/D105.png"" style= ""width:200px""alt=""img"">
                                </div>
                            </div>","-100","","0","images/D105.png","","","","[""Rectangular"",""Rounded""]"
"","","","","","html-slider-response","110","692550","0.0-106.0","zj8pgunks0","NaN","<div style=""width:500px;"">
                                <p style=""font-size:50px; font-weight:bold;""
                                ></p>
                                <div style=""width:240px; margin: auto;"">
                                    <img src=""images/D8.png"" style= ""width:200px""alt=""img"">
                                </div>
                            </div>","-86","","0","images/D8.png","","","","[""Rectangular"",""Rounded""]"
"","","","","","html-slider-response","111","695994","0.0-107.0","zj8pgunks0","NaN","<div style=""width:500px;"">
                                <p style=""font-size:50px; font-weight:bold;""
                                ></p>
                                <div style=""width:240px; margin: auto;"">
                                    <img src=""images/D80.png"" style= ""width:200px""alt=""img"">
                                </div>
                            </div>","-34","","0","images/D80.png","","","","[""Rectangular"",""Rounded""]"
"","","","","","html-slider-response","112","698165","0.0-108.0","zj8pgunks0","NaN","<div style=""width:500px;"">
                                <p style=""font-size:50px; font-weight:bold;""
                                ></p>
                                <div style=""width:240px; margin: auto;"">
                                    <img src=""images/D32.png"" style= ""width:200px""alt=""img"">
                                </div>
                            </div>","87","","0","images/D32.png","","","","[""Rectangular"",""Rounded""]"
"","","","","","html-slider-response","113","701034","0.0-109.0","zj8pgunks0","NaN","<div style=""width:500px;"">
                                <p style=""font-size:50px; font-weight:bold;""
                                ></p>
                                <div style=""width:240px; margin: auto;"">
                                    <img src=""images/D47.png"" style= ""width:200px""alt=""img"">
                                </div>
                            </div>","-146","","0","images/D47.png","","","","[""Rectangular"",""Rounded""]"
"","","","","","html-slider-response","114","704540","0.0-110.0","zj8pgunks0","NaN","<div style=""width:500px;"">
                                <p style=""font-size:50px; font-weight:bold;""
                                ></p>
                                <div style=""width:240px; margin: auto;"">
                                    <img src=""images/D35.png"" style= ""width:200px""alt=""img"">
                                </div>
                            </div>","154","","0","images/D35.png","","","","[""Rectangular"",""Rounded""]"
"","","","","","html-slider-response","115","707171","0.0-111.0","zj8pgunks0","NaN","<div style=""width:500px;"">
                                <p style=""font-size:50px; font-weight:bold;""
                                ></p>
                                <div style=""width:240px; margin: auto;"">
                                    <img src=""images/D24.png"" style= ""width:200px""alt=""img"">
                                </div>
                            </div>","71","","0","images/D24.png","","","","[""Rectangular"",""Rounded""]"
"","","","","","html-slider-response","116","709704","0.0-112.0","zj8pgunks0","NaN","<div style=""width:500px;"">
                                <p style=""font-size:50px; font-weight:bold;""
                                ></p>
                                <div style=""width:240px; margin: auto;"">
                                    <img src=""images/D16.png"" style= ""width:200px""alt=""img"">
                                </div>
                            </div>","-100","","0","images/D16.png","","","","[""Rectangular"",""Rounded""]"
"","","","","","html-slider-response","117","712221","0.0-113.0","zj8pgunks0","NaN","<div style=""width:500px;"">
                                <p style=""font-size:50px; font-weight:bold;""
                                ></p>
                                <div style=""width:240px; margin: auto;"">
                                    <img src=""images/D36.png"" style= ""width:200px""alt=""img"">
                                </div>
                            </div>","99","","0","images/D36.png","","","","[""Rectangular"",""Rounded""]"
"","","","","","html-slider-response","118","714226","0.0-114.0","zj8pgunks0","NaN","<div style=""width:500px;"">
                                <p style=""font-size:50px; font-weight:bold;""
                                ></p>
                                <div style=""width:240px; margin: auto;"">
                                    <img src=""images/D25.png"" style= ""width:200px""alt=""img"">
                                </div>
                            </div>","-200","","0","images/D25.png","","","","[""Rectangular"",""Rounded""]"
"","","","","","html-slider-response","119","716657","0.0-115.0","zj8pgunks0","NaN","<div style=""width:500px;"">
                                <p style=""font-size:50px; font-weight:bold;""
                                ></p>
                                <div style=""width:240px; margin: auto;"">
                                    <img src=""images/D51.png"" style= ""width:200px""alt=""img"">
                                </div>
                            </div>","-178","","0","images/D51.png","","","","[""Rectangular"",""Rounded""]"
"","","","","","html-slider-response","120","719198","0.0-116.0","zj8pgunks0","NaN","<div style=""width:500px;"">
                                <p style=""font-size:50px; font-weight:bold;""
                                ></p>
                                <div style=""width:240px; margin: auto;"">
                                    <img src=""images/D22.png"" style= ""width:200px""alt=""img"">
                                </div>
                            </div>","98","","0","images/D22.png","","","","[""Rectangular"",""Rounded""]"
"","","","","","html-slider-response","121","721522","0.0-117.0","zj8pgunks0","NaN","<div style=""width:500px;"">
                                <p style=""font-size:50px; font-weight:bold;""
                                ></p>
                                <div style=""width:240px; margin: auto;"">
                                    <img src=""images/D75.png"" style= ""width:200px""alt=""img"">
                                </div>
                            </div>","182","","0","images/D75.png","","","","[""Rectangular"",""Rounded""]"
"","","","","","html-slider-response","122","724099","0.0-118.0","zj8pgunks0","NaN","<div style=""width:500px;"">
                                <p style=""font-size:50px; font-weight:bold;""
                                ></p>
                                <div style=""width:240px; margin: auto;"">
                                    <img src=""images/D53.png"" style= ""width:200px""alt=""img"">
                                </div>
                            </div>","-54","","0","images/D53.png","","","","[""Rectangular"",""Rounded""]"
"","","","","","html-slider-response","123","726980","0.0-119.0","zj8pgunks0","NaN","<div style=""width:500px;"">
                                <p style=""font-size:50px; font-weight:bold;""
                                ></p>
                                <div style=""width:240px; margin: auto;"">
                                    <img src=""images/D87.png"" style= ""width:200px""alt=""img"">
                                </div>
                            </div>","46","","0","images/D87.png","","","","[""Rectangular"",""Rounded""]"
"","","","","","html-slider-response","124","729369","0.0-120.0","zj8pgunks0","NaN","<div style=""width:500px;"">
                                <p style=""font-size:50px; font-weight:bold;""
                                ></p>
                                <div style=""width:240px; margin: auto;"">
                                    <img src=""images/D20.png"" style= ""width:200px""alt=""img"">
                                </div>
                            </div>","-156","","0","images/D20.png","","","","[""Rectangular"",""Rounded""]"
"","","","","","html-slider-response","125","731782","0.0-121.0","zj8pgunks0","NaN","<div style=""width:500px;"">
                                <p style=""font-size:50px; font-weight:bold;""
                                ></p>
                                <div style=""width:240px; margin: auto;"">
                                    <img src=""images/D6.png"" style= ""width:200px""alt=""img"">
                                </div>
                            </div>","-155","","0","images/D6.png","","","","[""Rectangular"",""Rounded""]"
"","","","","","html-slider-response","126","735321","0.0-122.0","zj8pgunks0","NaN","<div style=""width:500px;"">
                                <p style=""font-size:50px; font-weight:bold;""
                                ></p>
                                <div style=""width:240px; margin: auto;"">
                                    <img src=""images/D19.png"" style= ""width:200px""alt=""img"">
                                </div>
                            </div>","21","","0","images/D19.png","","","","[""Rectangular"",""Rounded""]"
"","","","","","html-slider-response","127","737942","0.0-123.0","zj8pgunks0","NaN","<div style=""width:500px;"">
                                <p style=""font-size:50px; font-weight:bold;""
                                ></p>
                                <div style=""width:240px; margin: auto;"">
                                    <img src=""images/D82.png"" style= ""width:200px""alt=""img"">
                                </div>
                            </div>","-34","","0","images/D82.png","","","","[""Rectangular"",""Rounded""]"
"","","","","","html-slider-response","128","741995","0.0-124.0","zj8pgunks0","NaN","<div style=""width:500px;"">
                                <p style=""font-size:50px; font-weight:bold;""
                                ></p>
                                <div style=""width:240px; margin: auto;"">
                                    <img src=""images/D56.png"" style= ""width:200px""alt=""img"">
                                </div>
                            </div>","-158","","0","images/D56.png","","","","[""Rectangular"",""Rounded""]"
"","","","","","html-slider-response","129","745792","0.0-125.0","zj8pgunks0","NaN","<div style=""width:500px;"">
                                <p style=""font-size:50px; font-weight:bold;""
                                ></p>
                                <div style=""width:240px; margin: auto;"">
                                    <img src=""images/D11.png"" style= ""width:200px""alt=""img"">
                                </div>
                            </div>","-180","","0","images/D11.png","","","","[""Rectangular"",""Rounded""]"
"","","","","","html-slider-response","130","748631","0.0-126.0","zj8pgunks0","NaN","<div style=""width:500px;"">
                                <p style=""font-size:50px; font-weight:bold;""
                                ></p>
                                <div style=""width:240px; margin: auto;"">
                                    <img src=""images/D78.png"" style= ""width:200px""alt=""img"">
                                </div>
                            </div>","-171","","0","images/D78.png","","","","[""Rectangular"",""Rounded""]"
"","","","","","html-slider-response","131","750886","0.0-127.0","zj8pgunks0","NaN","<div style=""width:500px;"">
                                <p style=""font-size:50px; font-weight:bold;""
                                ></p>
                                <div style=""width:240px; margin: auto;"">
                                    <img src=""images/D55.png"" style= ""width:200px""alt=""img"">
                                </div>
                            </div>","-102","","0","images/D55.png","","","","[""Rectangular"",""Rounded""]"
"","","","","","html-slider-response","132","753971","0.0-128.0","zj8pgunks0","NaN","<div style=""width:500px;"">
                                <p style=""font-size:50px; font-weight:bold;""
                                ></p>
                                <div style=""width:240px; margin: auto;"">
                                    <img src=""images/D104.png"" style= ""width:200px""alt=""img"">
                                </div>
                            </div>","-128","","0","images/D104.png","","","","[""Rectangular"",""Rounded""]"
"","","","","","html-slider-response","133","757022","0.0-129.0","zj8pgunks0","NaN","<div style=""width:500px;"">
                                <p style=""font-size:50px; font-weight:bold;""
                                ></p>
                                <div style=""width:240px; margin: auto;"">
                                    <img src=""images/D66.png"" style= ""width:200px""alt=""img"">
                                </div>
                            </div>","163","","0","images/D66.png","","","","[""Rectangular"",""Rounded""]"
"","","","","","html-slider-response","134","759247","0.0-130.0","zj8pgunks0","NaN","<div style=""width:500px;"">
                                <p style=""font-size:50px; font-weight:bold;""
                                ></p>
                                <div style=""width:240px; margin: auto;"">
                                    <img src=""images/D111.png"" style= ""width:200px""alt=""img"">
                                </div>
                            </div>","178","","0","images/D111.png","","","","[""Rectangular"",""Rounded""]"
"","","","","","html-slider-response","135","761636","0.0-131.0","zj8pgunks0","NaN","<div style=""width:500px;"">
                                <p style=""font-size:50px; font-weight:bold;""
                                ></p>
                                <div style=""width:240px; margin: auto;"">
                                    <img src=""images/D96.png"" style= ""width:200px""alt=""img"">
                                </div>
                            </div>","-200","","0","images/D96.png","","","","[""Rectangular"",""Rounded""]"
"","","","","","html-slider-response","136","763936","0.0-132.0","zj8pgunks0","NaN","<div style=""width:500px;"">
                                <p style=""font-size:50px; font-weight:bold;""
                                ></p>
                                <div style=""width:240px; margin: auto;"">
                                    <img src=""images/D52.png"" style= ""width:200px""alt=""img"">
                                </div>
                            </div>","-95","","0","images/D52.png","","","","[""Rectangular"",""Rounded""]"
"","","","","","html-slider-response","137","766371","0.0-133.0","zj8pgunks0","NaN","<div style=""width:500px;"">
                                <p style=""font-size:50px; font-weight:bold;""
                                ></p>
                                <div style=""width:240px; margin: auto;"">
                                    <img src=""images/D92.png"" style= ""width:200px""alt=""img"">
                                </div>
                            </div>","100","","0","images/D92.png","","","","[""Rectangular"",""Rounded""]"
"","","","","","html-slider-response","138","768189","0.0-134.0","zj8pgunks0","NaN","<div style=""width:500px;"">
                                <p style=""font-size:50px; font-weight:bold;""
                                ></p>
                                <div style=""width:240px; margin: auto;"">
                                    <img src=""images/D17.png"" style= ""width:200px""alt=""img"">
                                </div>
                            </div>","-70","","0","images/D17.png","","","","[""Rectangular"",""Rounded""]"
"","","","","","html-slider-response","139","770568","0.0-135.0","zj8pgunks0","NaN","<div style=""width:500px;"">
                                <p style=""font-size:50px; font-weight:bold;""
                                ></p>
                                <div style=""width:240px; margin: auto;"">
                                    <img src=""images/D29.png"" style= ""width:200px""alt=""img"">
                                </div>
                            </div>","142","","0","images/D29.png","","","","[""Rectangular"",""Rounded""]"
"","","","","","html-slider-response","140","773119","0.0-136.0","zj8pgunks0","NaN","<div style=""width:500px;"">
                                <p style=""font-size:50px; font-weight:bold;""
                                ></p>
                                <div style=""width:240px; margin: auto;"">
                                    <img src=""images/D79.png"" style= ""width:200px""alt=""img"">
                                </div>
                            </div>","-114","","0","images/D79.png","","","","[""Rectangular"",""Rounded""]"
"","","","","","html-slider-response","141","775911","0.0-137.0","zj8pgunks0","NaN","<div style=""width:500px;"">
                                <p style=""font-size:50px; font-weight:bold;""
                                ></p>
                                <div style=""width:240px; margin: auto;"">
                                    <img src=""images/D1.png"" style= ""width:200px""alt=""img"">
                                </div>
                            </div>","-182","","0","images/D1.png","","","","[""Rectangular"",""Rounded""]"
"","","","","","html-slider-response","142","777881","0.0-138.0","zj8pgunks0","NaN","<div style=""width:500px;"">
                                <p style=""font-size:50px; font-weight:bold;""
                                ></p>
                                <div style=""width:240px; margin: auto;"">
                                    <img src=""images/D81.png"" style= ""width:200px""alt=""img"">
                                </div>
                            </div>","-79","","0","images/D81.png","","","","[""Rectangular"",""Rounded""]"
"","","","","","html-slider-response","143","779820","0.0-139.0","zj8pgunks0","NaN","<div style=""width:500px;"">
                                <p style=""font-size:50px; font-weight:bold;""
                                ></p>
                                <div style=""width:240px; margin: auto;"">
                                    <img src=""images/D46.png"" style= ""width:200px""alt=""img"">
                                </div>
                            </div>","-114","","0","images/D46.png","","","","[""Rectangular"",""Rounded""]"
"","","","","","html-button-response","144","781341","0.0-140.0","zj8pgunks0","1015","You have completed the second block of trials out of six. Please click 'Continue' when you are ready proceed.","0","","","","","","",""
"","","","","","html-button-response","145","788086","0.0-141.0","zj8pgunks0","6744","In the following trials, you will be asked to rate textures on the scale <b>Stripey</b> versus <b>Blobby</b>. Please click 'Continue' when you are ready proceed.","0","","","","","","",""
"","","","","","html-slider-response","146","795703","0.0-142.0","zj8pgunks0","NaN","<div style=""width:500px;"">
                                <p style=""font-size:50px; font-weight:bold;""
                                ></p>
                                <div style=""width:240px; margin: auto;"">
                                    <img src=""images/D1.png"" style= ""width:200px""alt=""img"">
                                </div>
                            </div>","-32","","0","images/D1.png","","","","[""Stripey"",""Blobby""]"
"","","","","","html-slider-response","147","797866","0.0-143.0","zj8pgunks0","NaN","<div style=""width:500px;"">
                                <p style=""font-size:50px; font-weight:bold;""
                                ></p>
                                <div style=""width:240px; margin: auto;"">
                                    <img src=""images/D48.png"" style= ""width:200px""alt=""img"">
                                </div>
                            </div>","200","","0","images/D48.png","","","","[""Stripey"",""Blobby""]"
"","","","","","html-slider-response","148","800268","0.0-144.0","zj8pgunks0","NaN","<div style=""width:500px;"">
                                <p style=""font-size:50px; font-weight:bold;""
                                ></p>
                                <div style=""width:240px; margin: auto;"">
                                    <img src=""images/D6.png"" style= ""width:200px""alt=""img"">
                                </div>
                            </div>","-62","","0","images/D6.png","","","","[""Stripey"",""Blobby""]"
"","","","","","html-slider-response","149","802436","0.0-145.0","zj8pgunks0","NaN","<div style=""width:500px;"">
                                <p style=""font-size:50px; font-weight:bold;""
                                ></p>
                                <div style=""width:240px; margin: auto;"">
                                    <img src=""images/D87.png"" style= ""width:200px""alt=""img"">
                                </div>
                            </div>","94","","0","images/D87.png","","","","[""Stripey"",""Blobby""]"
"","","","","","html-slider-response","150","804769","0.0-146.0","zj8pgunks0","NaN","<div style=""width:500px;"">
                                <p style=""font-size:50px; font-weight:bold;""
                                ></p>
                                <div style=""width:240px; margin: auto;"">
                                    <img src=""images/D32.png"" style= ""width:200px""alt=""img"">
                                </div>
                            </div>","105","","0","images/D32.png","","","","[""Stripey"",""Blobby""]"
"","","","","","html-slider-response","151","806552","0.0-147.0","zj8pgunks0","NaN","<div style=""width:500px;"">
                                <p style=""font-size:50px; font-weight:bold;""
                                ></p>
                                <div style=""width:240px; margin: auto;"">
                                    <img src=""images/D14.png"" style= ""width:200px""alt=""img"">
                                </div>
                            </div>","-114","","0","images/D14.png","","","","[""Stripey"",""Blobby""]"
"","","","","","html-slider-response","152","809269","0.0-148.0","zj8pgunks0","NaN","<div style=""width:500px;"">
                                <p style=""font-size:50px; font-weight:bold;""
                                ></p>
                                <div style=""width:240px; margin: auto;"">
                                    <img src=""images/D24.png"" style= ""width:200px""alt=""img"">
                                </div>
                            </div>","75","","0","images/D24.png","","","","[""Stripey"",""Blobby""]"
"","","","","","html-slider-response","153","811635","0.0-149.0","zj8pgunks0","NaN","<div style=""width:500px;"">
                                <p style=""font-size:50px; font-weight:bold;""
                                ></p>
                                <div style=""width:240px; margin: auto;"">
                                    <img src=""images/D68.png"" style= ""width:200px""alt=""img"">
                                </div>
                            </div>","-105","","0","images/D68.png","","","","[""Stripey"",""Blobby""]"
"","","","","","html-slider-response","154","814432","0.0-150.0","zj8pgunks0","NaN","<div style=""width:500px;"">
                                <p style=""font-size:50px; font-weight:bold;""
                                ></p>
                                <div style=""width:240px; margin: auto;"">
                                    <img src=""images/D79.png"" style= ""width:200px""alt=""img"">
                                </div>
                            </div>","-146","","0","images/D79.png","","","","[""Stripey"",""Blobby""]"
"","","","","","html-slider-response","155","816935","0.0-151.0","zj8pgunks0","NaN","<div style=""width:500px;"">
                                <p style=""font-size:50px; font-weight:bold;""
                                ></p>
                                <div style=""width:240px; margin: auto;"">
                                    <img src=""images/D94.png"" style= ""width:200px""alt=""img"">
                                </div>
                            </div>","-200","","0","images/D94.png","","","","[""Stripey"",""Blobby""]"
"","","","","","html-slider-response","156","819195","0.0-152.0","zj8pgunks0","NaN","<div style=""width:500px;"">
                                <p style=""font-size:50px; font-weight:bold;""
                                ></p>
                                <div style=""width:240px; margin: auto;"">
                                    <img src=""images/D75.png"" style= ""width:200px""alt=""img"">
                                </div>
                            </div>","200","","0","images/D75.png","","","","[""Stripey"",""Blobby""]"
"","","","","","html-slider-response","157","821583","0.0-153.0","zj8pgunks0","NaN","<div style=""width:500px;"">
                                <p style=""font-size:50px; font-weight:bold;""
                                ></p>
                                <div style=""width:240px; margin: auto;"">
                                    <img src=""images/D85.png"" style= ""width:200px""alt=""img"">
                                </div>
                            </div>","-200","","0","images/D85.png","","","","[""Stripey"",""Blobby""]"
"","","","","","html-slider-response","158","823491","0.0-154.0","zj8pgunks0","NaN","<div style=""width:500px;"">
                                <p style=""font-size:50px; font-weight:bold;""
                                ></p>
                                <div style=""width:240px; margin: auto;"">
                                    <img src=""images/D55.png"" style= ""width:200px""alt=""img"">
                                </div>
                            </div>","-200","","0","images/D55.png","","","","[""Stripey"",""Blobby""]"
"","","","","","html-slider-response","159","826250","0.0-155.0","zj8pgunks0","NaN","<div style=""width:500px;"">
                                <p style=""font-size:50px; font-weight:bold;""
                                ></p>
                                <div style=""width:240px; margin: auto;"">
                                    <img src=""images/D25.png"" style= ""width:200px""alt=""img"">
                                </div>
                            </div>","-158","","0","images/D25.png","","","","[""Stripey"",""Blobby""]"
"","","","","","html-slider-response","160","828878","0.0-156.0","zj8pgunks0","NaN","<div style=""width:500px;"">
                                <p style=""font-size:50px; font-weight:bold;""
                                ></p>
                                <div style=""width:240px; margin: auto;"">
                                    <img src=""images/D35.png"" style= ""width:200px""alt=""img"">
                                </div>
                            </div>","138","","0","images/D35.png","","","","[""Stripey"",""Blobby""]"
"","","","","","html-slider-response","161","830897","0.0-157.0","zj8pgunks0","NaN","<div style=""width:500px;"">
                                <p style=""font-size:50px; font-weight:bold;""
                                ></p>
                                <div style=""width:240px; margin: auto;"">
                                    <img src=""images/D17.png"" style= ""width:200px""alt=""img"">
                                </div>
                            </div>","-121","","0","images/D17.png","","","","[""Stripey"",""Blobby""]"
"","","","","","html-slider-response","162","833152","0.0-158.0","zj8pgunks0","NaN","<div style=""width:500px;"">
                                <p style=""font-size:50px; font-weight:bold;""
                                ></p>
                                <div style=""width:240px; margin: auto;"">
                                    <img src=""images/D34.png"" style= ""width:200px""alt=""img"">
                                </div>
                            </div>","108","","0","images/D34.png","","","","[""Stripey"",""Blobby""]"
"","","","","","html-slider-response","163","834977","0.0-159.0","zj8pgunks0","NaN","<div style=""width:500px;"">
                                <p style=""font-size:50px; font-weight:bold;""
                                ></p>
                                <div style=""width:240px; margin: auto;"">
                                    <img src=""images/D49.png"" style= ""width:200px""alt=""img"">
                                </div>
                            </div>","-200","","0","images/D49.png","","","","[""Stripey"",""Blobby""]"
"","","","","","html-slider-response","164","838220","0.0-160.0","zj8pgunks0","NaN","<div style=""width:500px;"">
                                <p style=""font-size:50px; font-weight:bold;""
                                ></p>
                                <div style=""width:240px; margin: auto;"">
                                    <img src=""images/D8.png"" style= ""width:200px""alt=""img"">
                                </div>
                            </div>","17","","0","images/D8.png","","","","[""Stripey"",""Blobby""]"
"","","","","","html-slider-response","165","840298","0.0-161.0","zj8pgunks0","NaN","<div style=""width:500px;"">
                                <p style=""font-size:50px; font-weight:bold;""
                                ></p>
                                <div style=""width:240px; margin: auto;"">
                                    <img src=""images/D66.png"" style= ""width:200px""alt=""img"">
                                </div>
                            </div>","98","","0","images/D66.png","","","","[""Stripey"",""Blobby""]"
"","","","","","html-slider-response","166","843993","0.0-162.0","zj8pgunks0","NaN","<div style=""width:500px;"">
                                <p style=""font-size:50px; font-weight:bold;""
                                ></p>
                                <div style=""width:240px; margin: auto;"">
                                    <img src=""images/D21.png"" style= ""width:200px""alt=""img"">
                                </div>
                            </div>","-147","","0","images/D21.png","","","","[""Stripey"",""Blobby""]"
"","","","","","html-slider-response","167","847362","0.0-163.0","zj8pgunks0","NaN","<div style=""width:500px;"">
                                <p style=""font-size:50px; font-weight:bold;""
                                ></p>
                                <div style=""width:240px; margin: auto;"">
                                    <img src=""images/D77.png"" style= ""width:200px""alt=""img"">
                                </div>
                            </div>","-145","","0","images/D77.png","","","","[""Stripey"",""Blobby""]"
"","","","","","html-slider-response","168","849527","0.0-164.0","zj8pgunks0","NaN","<div style=""width:500px;"">
                                <p style=""font-size:50px; font-weight:bold;""
                                ></p>
                                <div style=""width:240px; margin: auto;"">
                                    <img src=""images/D4.png"" style= ""width:200px""alt=""img"">
                                </div>
                            </div>","98","","0","images/D4.png","","","","[""Stripey"",""Blobby""]"
"","","","","","html-slider-response","169","852308","0.0-165.0","zj8pgunks0","NaN","<div style=""width:500px;"">
                                <p style=""font-size:50px; font-weight:bold;""
                                ></p>
                                <div style=""width:240px; margin: auto;"">
                                    <img src=""images/D56.png"" style= ""width:200px""alt=""img"">
                                </div>
                            </div>","47","","0","images/D56.png","","","","[""Stripey"",""Blobby""]"
"","","","","","html-slider-response","170","854767","0.0-166.0","zj8pgunks0","NaN","<div style=""width:500px;"">
                                <p style=""font-size:50px; font-weight:bold;""
                                ></p>
                                <div style=""width:240px; margin: auto;"">
                                    <img src=""images/D18.png"" style= ""width:200px""alt=""img"">
                                </div>
                            </div>","120","","0","images/D18.png","","","","[""Stripey"",""Blobby""]"
"","","","","","html-slider-response","171","857286","0.0-167.0","zj8pgunks0","NaN","<div style=""width:500px;"">
                                <p style=""font-size:50px; font-weight:bold;""
                                ></p>
                                <div style=""width:240px; margin: auto;"">
                                    <img src=""images/D76.png"" style= ""width:200px""alt=""img"">
                                </div>
                            </div>","-171","","0","images/D76.png","","","","[""Stripey"",""Blobby""]"
"","","","","","html-slider-response","172","859343","0.0-168.0","zj8pgunks0","NaN","<div style=""width:500px;"">
                                <p style=""font-size:50px; font-weight:bold;""
                                ></p>
                                <div style=""width:240px; margin: auto;"">
                                    <img src=""images/D57.png"" style= ""width:200px""alt=""img"">
                                </div>
                            </div>","84","","0","images/D57.png","","","","[""Stripey"",""Blobby""]"
"","","","","","html-slider-response","173","861685","0.0-169.0","zj8pgunks0","NaN","<div style=""width:500px;"">
                                <p style=""font-size:50px; font-weight:bold;""
                                ></p>
                                <div style=""width:240px; margin: auto;"">
                                    <img src=""images/D105.png"" style= ""width:200px""alt=""img"">
                                </div>
                            </div>","-200","","0","images/D105.png","","","","[""Stripey"",""Blobby""]"
"","","","","","html-slider-response","174","863485","0.0-170.0","zj8pgunks0","NaN","<div style=""width:500px;"">
                                <p style=""font-size:50px; font-weight:bold;""
                                ></p>
                                <div style=""width:240px; margin: auto;"">
                                    <img src=""images/D104.png"" style= ""width:200px""alt=""img"">
                                </div>
                            </div>","-46","","0","images/D104.png","","","","[""Stripey"",""Blobby""]"
"","","","","","html-slider-response","175","865494","0.0-171.0","zj8pgunks0","NaN","<div style=""width:500px;"">
                                <p style=""font-size:50px; font-weight:bold;""
                                ></p>
                                <div style=""width:240px; margin: auto;"">
                                    <img src=""images/D64.png"" style= ""width:200px""alt=""img"">
                                </div>
                            </div>","-43","","0","images/D64.png","","","","[""Stripey"",""Blobby""]"
"","","","","","html-slider-response","176","867620","0.0-172.0","zj8pgunks0","NaN","<div style=""width:500px;"">
                                <p style=""font-size:50px; font-weight:bold;""
                                ></p>
                                <div style=""width:240px; margin: auto;"">
                                    <img src=""images/D16.png"" style= ""width:200px""alt=""img"">
                                </div>
                            </div>","-120","","0","images/D16.png","","","","[""Stripey"",""Blobby""]"
"","","","","","html-slider-response","177","869723","0.0-173.0","zj8pgunks0","NaN","<div style=""width:500px;"">
                                <p style=""font-size:50px; font-weight:bold;""
                                ></p>
                                <div style=""width:240px; margin: auto;"">
                                    <img src=""images/D47.png"" style= ""width:200px""alt=""img"">
                                </div>
                            </div>","-200","","0","images/D47.png","","","","[""Stripey"",""Blobby""]"
"","","","","","html-slider-response","178","871760","0.0-174.0","zj8pgunks0","NaN","<div style=""width:500px;"">
                                <p style=""font-size:50px; font-weight:bold;""
                                ></p>
                                <div style=""width:240px; margin: auto;"">
                                    <img src=""images/D92.png"" style= ""width:200px""alt=""img"">
                                </div>
                            </div>","148","","0","images/D92.png","","","","[""Stripey"",""Blobby""]"
"","","","","","html-slider-response","179","873860","0.0-175.0","zj8pgunks0","NaN","<div style=""width:500px;"">
                                <p style=""font-size:50px; font-weight:bold;""
                                ></p>
                                <div style=""width:240px; margin: auto;"">
                                    <img src=""images/D22.png"" style= ""width:200px""alt=""img"">
                                </div>
                            </div>","49","","0","images/D22.png","","","","[""Stripey"",""Blobby""]"
"","","","","","html-slider-response","180","875811","0.0-176.0","zj8pgunks0","NaN","<div style=""width:500px;"">
                                <p style=""font-size:50px; font-weight:bold;""
                                ></p>
                                <div style=""width:240px; margin: auto;"">
                                    <img src=""images/D36.png"" style= ""width:200px""alt=""img"">
                                </div>
                            </div>","40","","0","images/D36.png","","","","[""Stripey"",""Blobby""]"
"","","","","","html-slider-response","181","878080","0.0-177.0","zj8pgunks0","NaN","<div style=""width:500px;"">
                                <p style=""font-size:50px; font-weight:bold;""
                                ></p>
                                <div style=""width:240px; margin: auto;"">
                                    <img src=""images/D65.png"" style= ""width:200px""alt=""img"">
                                </div>
                            </div>","-128","","0","images/D65.png","","","","[""Stripey"",""Blobby""]"
"","","","","","html-slider-response","182","880297","0.0-178.0","zj8pgunks0","NaN","<div style=""width:500px;"">
                                <p style=""font-size:50px; font-weight:bold;""
                                ></p>
                                <div style=""width:240px; margin: auto;"">
                                    <img src=""images/D96.png"" style= ""width:200px""alt=""img"">
                                </div>
                            </div>","-200","","0","images/D96.png","","","","[""Stripey"",""Blobby""]"
"","","","","","html-slider-response","183","882336","0.0-179.0","zj8pgunks0","NaN","<div style=""width:500px;"">
                                <p style=""font-size:50px; font-weight:bold;""
                                ></p>
                                <div style=""width:240px; margin: auto;"">
                                    <img src=""images/D46.png"" style= ""width:200px""alt=""img"">
                                </div>
                            </div>","-196","","0","images/D46.png","","","","[""Stripey"",""Blobby""]"
"","","","","","html-slider-response","184","884548","0.0-180.0","zj8pgunks0","NaN","<div style=""width:500px;"">
                                <p style=""font-size:50px; font-weight:bold;""
                                ></p>
                                <div style=""width:240px; margin: auto;"">
                                    <img src=""images/D29.png"" style= ""width:200px""alt=""img"">
                                </div>
                            </div>","61","","0","images/D29.png","","","","[""Stripey"",""Blobby""]"
"","","","","","html-slider-response","185","886483","0.0-181.0","zj8pgunks0","NaN","<div style=""width:500px;"">
                                <p style=""font-size:50px; font-weight:bold;""
                                ></p>
                                <div style=""width:240px; margin: auto;"">
                                    <img src=""images/D37.png"" style= ""width:200px""alt=""img"">
                                </div>
                            </div>","-108","","0","images/D37.png","","","","[""Stripey"",""Blobby""]"
"","","","","","html-slider-response","186","888480","0.0-182.0","zj8pgunks0","NaN","<div style=""width:500px;"">
                                <p style=""font-size:50px; font-weight:bold;""
                                ></p>
                                <div style=""width:240px; margin: auto;"">
