"success","timeout","failed_images","failed_audio","failed_video","trial_type","trial_index","time_elapsed","internal_node_id","subject_id","rt","stimulus","response","question_order","slider_start","image_path","practiceTrial","practiceTrialNum","correct","slider_labels"
"true","false","[]","[]","[]","preload","0","2524","0.0-0.0","zve7ruqdqo","","","","","","","","","",""
"","","","","","html-button-response","1","328310","0.0-1.0","zve7ruqdqo","325792","<div style='text-align:center; font-size:20px; line-height:25px; width: 1200px;'>
                Welcome to our experiment! <br>
                <br>At the bottom of this screen, you will see a button that says 'Begin Experiment.
                <br>Please only click that button when you are ready to complete the 25 minute experiment in one sitting. <br>
                <br> Once you click that button, it will not be possible to restart the experiment. <br><br>","0","","","","","","",""
"true","","","","","fullscreen","2","330385","0.0-2.0","zve7ruqdqo","1073","","","","","","","","",""
"","","","","","survey-multi-select","3","335289","0.0-3.0","zve7ruqdqo","4894","","{""Consent"":[""<strong>I consent</strong>""]}","[0]","","","","","",""
"","","","","","html-button-response","4","336308","0.0-4.0","zve7ruqdqo","1018","Welcome! <p> This experiment involves two parts: demographic information, followed by the experimental task.<p> It will take about 25 minutes to complete both parts.","0","","","","","","",""
"","","","","","survey-text","5","346366","0.0-5.0","zve7ruqdqo","10056","","{""Age"":""19"",""Gender"":""female"",""Race/ethnicity"":""asian/white""}","","","","","","",""
"","","","","","html-slider-response","6","476181","0.0-6.0","zve7ruqdqo","129815","
                <div style='text-align:center; height: auto; margin-left=-100px; margin-bottom: -20px; font-size:20px; line-height:5px; width: 1200px;'>
                    <br>During this experiment, you will see a series of textures, one at a time, like the ones below: 
                </div>
                    <br>
                    <br>
                    <img src=""anchoring_visual_textures.png"" alt=""img"" style=""max-width:1200px; margin-left: -10px;"">
                </div>
                <div style=""clear: both;""></div>
                </div>
                    <div style='text-align:center; margin-left=-100px; font-size:20px; line-height:20px; width: 1200px; margin-top: -50px;'>
                    
                    <br> For each texture, you will be asked to rate where you think it falls on each of the response scales with the following endpoints:
                    </div>
                            <div style=""text-align: center; width: 1400px; "">
                                <p style=""font-size:20px; line-height:5px; ""><b>Stripey</b> versus <b>Blobby</b></p>
                                <p style=""font-size:20px; line-height:5px; ""><b>Rectangular</b> versus <b>Rounded</b></p>
                                <p style=""font-size:20px;line-height:5px;""><b>Fine</b> versus <b>Coarse</b></p>
                                <p style=""font-size:20px;line-height:5px; ""><b>Smooth</b> versus <b>Rough</b></p>
                                <p style=""font-size:20px;line-height:5px; ""><b>Non-Random</b> versus <b>Random</b></p>
                                <p style=""font-size:20px;line-height:5px;""><b>Soft</b> versus <b>Hard</b></p>
                            </div>
                            <div style='text-align:center; font-size:20px; line-height:20px; width: 1400px;'>
                    
                    Each trial will include one texture and one response scale. You will be asked to make your rating by sliding the cursor along a slider response scale like the one below.
                    <br><br> Before beginning, please look at the textures and scales. For each scale, think about the texture you associate most with the left endpoint. When you see that texture for that response scale, please click near the left of the scale.
                    <br><br> Now, please think about the texture you associate most with the right endpoint of each scale. When you see that texture for that response scale, please click near the right of the scale. 
                    <br><br> If you think a texture is not strongly associated with either endpoint of the scale, please click near the midpoint of the scale. Please use the full range of the scale. 
                    <br><br> You will be asked to rate each texture for a given scale before moving on to the next scale.
                    <br><br> Please press the 'Continue' button for instructions on how to use the slider.                     <br><br>
                ","-5","","0","visual_textures_anchoring.png","true","","",""
"","","","","","html-button-response","7","477564","0.0-7.0","zve7ruqdqo","1381","<div style=""width:1200px; margin-top:-150px;""><p style=""text-align:center; font-size:24px;"">To move the slider, click and drag your cursor to the location of the scale where you would like to make your rating and then let go. <br><br> When you let go of the slider, your response will be recorded and the next trial will begin. <br><br><br>
                We are interested in your initial impressions of each texture and scale, so please go with your first intuition. <br><br>
                Before you begin the experiment, there will be four training trials for you to practice using the scale. <br><br><br><br></div>
                <div style=""width:1200px;""><p style=""text-align:center; font-size:20px;"">When you are ready to start the training trials, please click ""Continue"".</p></div>","0","","","","","","",""
"","","","","","html-slider-response","8","479493","0.0-8.0-0.0","zve7ruqdqo","NaN","<div style=""width:500px;"">
                                <p style=""font-size:25px;"">Please move the slider all the way to the <br> right endpoint of the scale</p>

                                </div>
                            </div>","200","","0","","true","0","true",""
"","","","","","html-button-response","9","480466","0.0-8.0-1.0","zve7ruqdqo","467","<p align='center'><b>Good job!</b> Click on 'Continue' to proceed.</p>","0","","","","","","",""
"","","","","","html-slider-response","10","481844","0.0-9.0-0.0","zve7ruqdqo","NaN","<div style=""width:500px;"">
                                <p style=""font-size:25px;"">Please move the slider all the way to the <br> left endpoint of the scale</p>

                                </div>
                            </div>","-200","","0","","true","1","true",""
"","","","","","html-button-response","11","483010","0.0-9.0-1.0","zve7ruqdqo","663","<p align='center'><b>Good job!</b> Click on 'Continue' to proceed.</p>","0","","","","","","",""
"","","","","","html-slider-response","12","485850","0.0-10.0-0.0","zve7ruqdqo","NaN","<div style=""width:500px;"">
                                <p style=""font-size:25px;"">Please move the slider halfway between the center and right endpoint of the scale</p>

                                </div>
                            </div>","101","","0","","true","2","true",""
"","","","","","html-button-response","13","486969","0.0-10.0-1.0","zve7ruqdqo","615","<p align='center'><b>Good job!</b> Click on 'Continue' to proceed.</p>","0","","","","","","",""
"","","","","","html-slider-response","14","488984","0.0-11.0-0.0","zve7ruqdqo","NaN","<div style=""width:500px;"">
                                <p style=""font-size:25px;"">Please move the slider halfway between the center and left endpoint of the scale</p>

                                </div>
                            </div>","-114","","0","","true","3","false",""
"","","","","","html-button-response","15","490033","0.0-11.0-1.0","zve7ruqdqo","546","<p align='center'><b>Not quite!</b> The slider was not placed near the instructed locattion. Click on 'Continue' to try again. </p>","0","","","","","","",""
"","","","","","html-slider-response","16","494411","0.0-11.1-0.1","zve7ruqdqo","NaN","<div style=""width:500px;"">
                                <p style=""font-size:25px;"">Please move the slider halfway between the center and left endpoint of the scale</p>

                                </div>
                            </div>","-106","","0","","true","3","true",""
"","","","","","html-button-response","17","495515","0.0-11.1-1.1","zve7ruqdqo","601","<p align='center'><b>Good job!</b> Click on 'Continue' to proceed.</p>","0","","","","","","",""
"","","","","","html-button-response","18","496350","0.0-12.0","zve7ruqdqo","834","<div style=""width:800px; margin-top:-300px;""><p style=""text-align:center; font-size:22px; line-height:25px;""""> Great job! You've completed the practice trials.</div>
                     <div style=""width:800px; margin-top:-20px;""><p style=""text-align:center""><br><br> In the following trials, you will be asked to rate textures on each scale one-by-one. <br> You will be given opportunities to take breaks when you have completed each block of trials. There are six total blocks of trials. <br><br> Please click continue to begin the main task.<br><br><br> </div>","0","","","","","","",""
"","","","","","html-button-response","19","497073","0.0-13.0","zve7ruqdqo","722","In the following trials, you will be asked to rate textures on the scale <b>Rectangular</b> versus <b>Rounded</b>. Please click 'Continue' when you are ready proceed.","0","","","","","","",""
"","","","","","html-slider-response","20","498577","0.0-14.0","zve7ruqdqo","NaN","<div style=""width:500px;"">
                                <p style=""font-size:50px; font-weight:bold;""
                                ></p>
                                <div style=""width:240px; margin: auto;"">
                                    <img src=""images/D103.png"" style= ""width:200px""alt=""img"">
                                </div>
                            </div>","200","","0","images/D103.png","","","","[""Rectangular"",""Rounded""]"
"","","","","","html-slider-response","21","500170","0.0-15.0","zve7ruqdqo","NaN","<div style=""width:500px;"">
                                <p style=""font-size:50px; font-weight:bold;""
                                ></p>
                                <div style=""width:240px; margin: auto;"">
                                    <img src=""images/D3.png"" style= ""width:200px""alt=""img"">
                                </div>
                            </div>","129","","0","images/D3.png","","","","[""Rectangular"",""Rounded""]"
"","","","","","html-slider-response","22","501578","0.0-16.0","zve7ruqdqo","NaN","<div style=""width:500px;"">
                                <p style=""font-size:50px; font-weight:bold;""
                                ></p>
                                <div style=""width:240px; margin: auto;"">
                                    <img src=""images/D19.png"" style= ""width:200px""alt=""img"">
                                </div>
                            </div>","159","","0","images/D19.png","","","","[""Rectangular"",""Rounded""]"
"","","","","","html-slider-response","23","503128","0.0-17.0","zve7ruqdqo","NaN","<div style=""width:500px;"">
                                <p style=""font-size:50px; font-weight:bold;""
                                ></p>
                                <div style=""width:240px; margin: auto;"">
                                    <img src=""images/D34.png"" style= ""width:200px""alt=""img"">
                                </div>
                            </div>","160","","0","images/D34.png","","","","[""Rectangular"",""Rounded""]"
"","","","","","html-slider-response","24","504692","0.0-18.0","zve7ruqdqo","NaN","<div style=""width:500px;"">
                                <p style=""font-size:50px; font-weight:bold;""
                                ></p>
                                <div style=""width:240px; margin: auto;"">
                                    <img src=""images/D74.png"" style= ""width:200px""alt=""img"">
                                </div>
                            </div>","105","","0","images/D74.png","","","","[""Rectangular"",""Rounded""]"
"","","","","","html-slider-response","25","506222","0.0-19.0","zve7ruqdqo","NaN","<div style=""width:500px;"">
                                <p style=""font-size:50px; font-weight:bold;""
                                ></p>
                                <div style=""width:240px; margin: auto;"">
                                    <img src=""images/D35.png"" style= ""width:200px""alt=""img"">
                                </div>
                            </div>","123","","0","images/D35.png","","","","[""Rectangular"",""Rounded""]"
"","","","","","html-slider-response","26","507784","0.0-20.0","zve7ruqdqo","NaN","<div style=""width:500px;"">
                                <p style=""font-size:50px; font-weight:bold;""
                                ></p>
                                <div style=""width:240px; margin: auto;"">
                                    <img src=""images/D37.png"" style= ""width:200px""alt=""img"">
                                </div>
                            </div>","136","","0","images/D37.png","","","","[""Rectangular"",""Rounded""]"
"","","","","","html-slider-response","27","509233","0.0-21.0","zve7ruqdqo","NaN","<div style=""width:500px;"">
                                <p style=""font-size:50px; font-weight:bold;""
                                ></p>
                                <div style=""width:240px; margin: auto;"">
                                    <img src=""images/D53.png"" style= ""width:200px""alt=""img"">
                                </div>
                            </div>","122","","0","images/D53.png","","","","[""Rectangular"",""Rounded""]"
"","","","","","html-slider-response","28","510833","0.0-22.0","zve7ruqdqo","NaN","<div style=""width:500px;"">
                                <p style=""font-size:50px; font-weight:bold;""
                                ></p>
                                <div style=""width:240px; margin: auto;"">
                                    <img src=""images/D36.png"" style= ""width:200px""alt=""img"">
                                </div>
                            </div>","129","","0","images/D36.png","","","","[""Rectangular"",""Rounded""]"
"","","","","","html-slider-response","29","512362","0.0-23.0","zve7ruqdqo","NaN","<div style=""width:500px;"">
                                <p style=""font-size:50px; font-weight:bold;""
                                ></p>
                                <div style=""width:240px; margin: auto;"">
                                    <img src=""images/D105.png"" style= ""width:200px""alt=""img"">
                                </div>
                            </div>","-108","","0","images/D105.png","","","","[""Rectangular"",""Rounded""]"
"","","","","","html-slider-response","30","514033","0.0-24.0","zve7ruqdqo","NaN","<div style=""width:500px;"">
                                <p style=""font-size:50px; font-weight:bold;""
                                ></p>
                                <div style=""width:240px; margin: auto;"">
                                    <img src=""images/D104.png"" style= ""width:200px""alt=""img"">
                                </div>
                            </div>","115","","0","images/D104.png","","","","[""Rectangular"",""Rounded""]"
"","","","","","html-slider-response","31","515512","0.0-25.0","zve7ruqdqo","NaN","<div style=""width:500px;"">
                                <p style=""font-size:50px; font-weight:bold;""
                                ></p>
                                <div style=""width:240px; margin: auto;"">
                                    <img src=""images/D32.png"" style= ""width:200px""alt=""img"">
                                </div>
                            </div>","131","","0","images/D32.png","","","","[""Rectangular"",""Rounded""]"
"","","","","","html-slider-response","32","517276","0.0-26.0","zve7ruqdqo","NaN","<div style=""width:500px;"">
                                <p style=""font-size:50px; font-weight:bold;""
                                ></p>
                                <div style=""width:240px; margin: auto;"">
                                    <img src=""images/D48.png"" style= ""width:200px""alt=""img"">
                                </div>
                            </div>","94","","0","images/D48.png","","","","[""Rectangular"",""Rounded""]"
"","","","","","html-slider-response","33","518763","0.0-27.0","zve7ruqdqo","NaN","<div style=""width:500px;"">
                                <p style=""font-size:50px; font-weight:bold;""
                                ></p>
                                <div style=""width:240px; margin: auto;"">
                                    <img src=""images/D56.png"" style= ""width:200px""alt=""img"">
                                </div>
                            </div>","-113","","0","images/D56.png","","","","[""Rectangular"",""Rounded""]"
"","","","","","html-slider-response","34","520246","0.0-28.0","zve7ruqdqo","NaN","<div style=""width:500px;"">
                                <p style=""font-size:50px; font-weight:bold;""
                                ></p>
                                <div style=""width:240px; margin: auto;"">
                                    <img src=""images/D9.png"" style= ""width:200px""alt=""img"">
                                </div>
                            </div>","145","","0","images/D9.png","","","","[""Rectangular"",""Rounded""]"
"","","","","","html-slider-response","35","522119","0.0-29.0","zve7ruqdqo","NaN","<div style=""width:500px;"">
                                <p style=""font-size:50px; font-weight:bold;""
                                ></p>
                                <div style=""width:240px; margin: auto;"">
                                    <img src=""images/D82.png"" style= ""width:200px""alt=""img"">
                                </div>
                            </div>","119","","0","images/D82.png","","","","[""Rectangular"",""Rounded""]"
"","","","","","html-slider-response","36","523763","0.0-30.0","zve7ruqdqo","NaN","<div style=""width:500px;"">
                                <p style=""font-size:50px; font-weight:bold;""
                                ></p>
                                <div style=""width:240px; margin: auto;"">
                                    <img src=""images/D75.png"" style= ""width:200px""alt=""img"">
                                </div>
                            </div>","100","","0","images/D75.png","","","","[""Rectangular"",""Rounded""]"
"","","","","","html-slider-response","37","525335","0.0-31.0","zve7ruqdqo","NaN","<div style=""width:500px;"">
                                <p style=""font-size:50px; font-weight:bold;""
                                ></p>
                                <div style=""width:240px; margin: auto;"">
                                    <img src=""images/D21.png"" style= ""width:200px""alt=""img"">
                                </div>
                            </div>","131","","0","images/D21.png","","","","[""Rectangular"",""Rounded""]"
"","","","","","html-slider-response","38","526988","0.0-32.0","zve7ruqdqo","NaN","<div style=""width:500px;"">
                                <p style=""font-size:50px; font-weight:bold;""
                                ></p>
                                <div style=""width:240px; margin: auto;"">
                                    <img src=""images/D1.png"" style= ""width:200px""alt=""img"">
                                </div>
                            </div>","-110","","0","images/D1.png","","","","[""Rectangular"",""Rounded""]"
"","","","","","html-slider-response","39","528784","0.0-33.0","zve7ruqdqo","NaN","<div style=""width:500px;"">
                                <p style=""font-size:50px; font-weight:bold;""
                                ></p>
                                <div style=""width:240px; margin: auto;"">
                                    <img src=""images/D94.png"" style= ""width:200px""alt=""img"">
                                </div>
                            </div>","-177","","0","images/D94.png","","","","[""Rectangular"",""Rounded""]"
"","","","","","html-slider-response","40","530581","0.0-34.0","zve7ruqdqo","NaN","<div style=""width:500px;"">
                                <p style=""font-size:50px; font-weight:bold;""
                                ></p>
                                <div style=""width:240px; margin: auto;"">
                                    <img src=""images/D17.png"" style= ""width:200px""alt=""img"">
                                </div>
                            </div>","115","","0","images/D17.png","","","","[""Rectangular"",""Rounded""]"
"","","","","","html-slider-response","41","532591","0.0-35.0","zve7ruqdqo","NaN","<div style=""width:500px;"">
                                <p style=""font-size:50px; font-weight:bold;""
                                ></p>
                                <div style=""width:240px; margin: auto;"">
                                    <img src=""images/D106.png"" style= ""width:200px""alt=""img"">
                                </div>
                            </div>","66","","0","images/D106.png","","","","[""Rectangular"",""Rounded""]"
"","","","","","html-slider-response","42","534120","0.0-36.0","zve7ruqdqo","NaN","<div style=""width:500px;"">
                                <p style=""font-size:50px; font-weight:bold;""
                                ></p>
                                <div style=""width:240px; margin: auto;"">
                                    <img src=""images/D57.png"" style= ""width:200px""alt=""img"">
                                </div>
                            </div>","95","","0","images/D57.png","","","","[""Rectangular"",""Rounded""]"
"","","","","","html-slider-response","43","535685","0.0-37.0","zve7ruqdqo","NaN","<div style=""width:500px;"">
                                <p style=""font-size:50px; font-weight:bold;""
                                ></p>
                                <div style=""width:240px; margin: auto;"">
                                    <img src=""images/D83.png"" style= ""width:200px""alt=""img"">
                                </div>
                            </div>","129","","0","images/D83.png","","","","[""Rectangular"",""Rounded""]"
"","","","","","html-slider-response","44","537213","0.0-38.0","zve7ruqdqo","NaN","<div style=""width:500px;"">
                                <p style=""font-size:50px; font-weight:bold;""
                                ></p>
                                <div style=""width:240px; margin: auto;"">
                                    <img src=""images/D79.png"" style= ""width:200px""alt=""img"">
                                </div>
                            </div>","100","","0","images/D79.png","","","","[""Rectangular"",""Rounded""]"
"","","","","","html-slider-response","45","538851","0.0-39.0","zve7ruqdqo","NaN","<div style=""width:500px;"">
                                <p style=""font-size:50px; font-weight:bold;""
                                ></p>
                                <div style=""width:240px; margin: auto;"">
                                    <img src=""images/D4.png"" style= ""width:200px""alt=""img"">
                                </div>
                            </div>","152","","0","images/D4.png","","","","[""Rectangular"",""Rounded""]"
"","","","","","html-slider-response","46","540389","0.0-40.0","zve7ruqdqo","NaN","<div style=""width:500px;"">
                                <p style=""font-size:50px; font-weight:bold;""
                                ></p>
                                <div style=""width:240px; margin: auto;"">
                                    <img src=""images/D14.png"" style= ""width:200px""alt=""img"">
                                </div>
                            </div>","89","","0","images/D14.png","","","","[""Rectangular"",""Rounded""]"
"","","","","","html-slider-response","47","541871","0.0-41.0","zve7ruqdqo","NaN","<div style=""width:500px;"">
                                <p style=""font-size:50px; font-weight:bold;""
                                ></p>
                                <div style=""width:240px; margin: auto;"">
                                    <img src=""images/D24.png"" style= ""width:200px""alt=""img"">
                                </div>
                            </div>","150","","0","images/D24.png","","","","[""Rectangular"",""Rounded""]"
"","","","","","html-slider-response","48","543394","0.0-42.0","zve7ruqdqo","NaN","<div style=""width:500px;"">
                                <p style=""font-size:50px; font-weight:bold;""
                                ></p>
                                <div style=""width:240px; margin: auto;"">
                                    <img src=""images/D92.png"" style= ""width:200px""alt=""img"">
                                </div>
                            </div>","111","","0","images/D92.png","","","","[""Rectangular"",""Rounded""]"
"","","","","","html-slider-response","49","545164","0.0-43.0","zve7ruqdqo","NaN","<div style=""width:500px;"">
                                <p style=""font-size:50px; font-weight:bold;""
                                ></p>
                                <div style=""width:240px; margin: auto;"">
                                    <img src=""images/D64.png"" style= ""width:200px""alt=""img"">
                                </div>
                            </div>","-200","","0","images/D64.png","","","","[""Rectangular"",""Rounded""]"
"","","","","","html-slider-response","50","546974","0.0-44.0","zve7ruqdqo","NaN","<div style=""width:500px;"">
                                <p style=""font-size:50px; font-weight:bold;""
                                ></p>
                                <div style=""width:240px; margin: auto;"">
                                    <img src=""images/D111.png"" style= ""width:200px""alt=""img"">
                                </div>
                            </div>","119","","0","images/D111.png","","","","[""Rectangular"",""Rounded""]"
"","","","","","html-slider-response","51","548647","0.0-45.0","zve7ruqdqo","NaN","<div style=""width:500px;"">
                                <p style=""font-size:50px; font-weight:bold;""
                                ></p>
                                <div style=""width:240px; margin: auto;"">
                                    <img src=""images/D18.png"" style= ""width:200px""alt=""img"">
                                </div>
                            </div>","-70","","0","images/D18.png","","","","[""Rectangular"",""Rounded""]"
"","","","","","html-slider-response","52","550352","0.0-46.0","zve7ruqdqo","NaN","<div style=""width:500px;"">
                                <p style=""font-size:50px; font-weight:bold;""
                                ></p>
                                <div style=""width:240px; margin: auto;"">
                                    <img src=""images/D49.png"" style= ""width:200px""alt=""img"">
                                </div>
                            </div>","-103","","0","images/D49.png","","","","[""Rectangular"",""Rounded""]"
"","","","","","html-slider-response","53","551986","0.0-47.0","zve7ruqdqo","NaN","<div style=""width:500px;"">
                                <p style=""font-size:50px; font-weight:bold;""
                                ></p>
                                <div style=""width:240px; margin: auto;"">
                                    <img src=""images/D76.png"" style= ""width:200px""alt=""img"">
                                </div>
                            </div>","86","","0","images/D76.png","","","","[""Rectangular"",""Rounded""]"
"","","","","","html-slider-response","54","553876","0.0-48.0","zve7ruqdqo","NaN","<div style=""width:500px;"">
                                <p style=""font-size:50px; font-weight:bold;""
                                ></p>
                                <div style=""width:240px; margin: auto;"">
                                    <img src=""images/D16.png"" style= ""width:200px""alt=""img"">
                                </div>
                            </div>","-72","","0","images/D16.png","","","","[""Rectangular"",""Rounded""]"
"","","","","","html-slider-response","55","556438","0.0-49.0","zve7ruqdqo","NaN","<div style=""width:500px;"">
                                <p style=""font-size:50px; font-weight:bold;""
                                ></p>
                                <div style=""width:240px; margin: auto;"">
                                    <img src=""images/D65.png"" style= ""width:200px""alt=""img"">
                                </div>
                            </div>","-126","","0","images/D65.png","","","","[""Rectangular"",""Rounded""]"
"","","","","","html-slider-response","56","558108","0.0-50.0","zve7ruqdqo","NaN","<div style=""width:500px;"">
                                <p style=""font-size:50px; font-weight:bold;""
                                ></p>
                                <div style=""width:240px; margin: auto;"">
                                    <img src=""images/D78.png"" style= ""width:200px""alt=""img"">
                                </div>
                            </div>","93","","0","images/D78.png","","","","[""Rectangular"",""Rounded""]"
"","","","","","html-slider-response","57","559906","0.0-51.0","zve7ruqdqo","NaN","<div style=""width:500px;"">
                                <p style=""font-size:50px; font-weight:bold;""
                                ></p>
                                <div style=""width:240px; margin: auto;"">
                                    <img src=""images/D55.png"" style= ""width:200px""alt=""img"">
                                </div>
                            </div>","161","","0","images/D55.png","","","","[""Rectangular"",""Rounded""]"
"","","","","","html-slider-response","58","561373","0.0-52.0","zve7ruqdqo","NaN","<div style=""width:500px;"">
                                <p style=""font-size:50px; font-weight:bold;""
                                ></p>
                                <div style=""width:240px; margin: auto;"">
                                    <img src=""images/D68.png"" style= ""width:200px""alt=""img"">
                                </div>
                            </div>","150","","0","images/D68.png","","","","[""Rectangular"",""Rounded""]"
"","","","","","html-slider-response","59","562850","0.0-53.0","zve7ruqdqo","NaN","<div style=""width:500px;"">
                                <p style=""font-size:50px; font-weight:bold;""
                                ></p>
                                <div style=""width:240px; margin: auto;"">
                                    <img src=""images/D81.png"" style= ""width:200px""alt=""img"">
                                </div>
                            </div>","110","","0","images/D81.png","","","","[""Rectangular"",""Rounded""]"
"","","","","","html-slider-response","60","564274","0.0-54.0","zve7ruqdqo","NaN","<div style=""width:500px;"">
                                <p style=""font-size:50px; font-weight:bold;""
                                ></p>
                                <div style=""width:240px; margin: auto;"">
                                    <img src=""images/D95.png"" style= ""width:200px""alt=""img"">
                                </div>
                            </div>","-194","","0","images/D95.png","","","","[""Rectangular"",""Rounded""]"
"","","","","","html-slider-response","61","566559","0.0-55.0","zve7ruqdqo","NaN","<div style=""width:500px;"">
                                <p style=""font-size:50px; font-weight:bold;""
                                ></p>
                                <div style=""width:240px; margin: auto;"">
                                    <img src=""images/D51.png"" style= ""width:200px""alt=""img"">
                                </div>
                            </div>","148","","0","images/D51.png","","","","[""Rectangular"",""Rounded""]"
"","","","","","html-slider-response","62","568835","0.0-56.0","zve7ruqdqo","NaN","<div style=""width:500px;"">
                                <p style=""font-size:50px; font-weight:bold;""
                                ></p>
                                <div style=""width:240px; margin: auto;"">
                                    <img src=""images/D6.png"" style= ""width:200px""alt=""img"">
                                </div>
                            </div>","-58","","0","images/D6.png","","","","[""Rectangular"",""Rounded""]"
"","","","","","html-slider-response","63","570350","0.0-57.0","zve7ruqdqo","NaN","<div style=""width:500px;"">
                                <p style=""font-size:50px; font-weight:bold;""
                                ></p>
                                <div style=""width:240px; margin: auto;"">
                                    <img src=""images/D77.png"" style= ""width:200px""alt=""img"">
                                </div>
                            </div>","118","","0","images/D77.png","","","","[""Rectangular"",""Rounded""]"
"","","","","","html-slider-response","64","571858","0.0-58.0","zve7ruqdqo","NaN","<div style=""width:500px;"">
                                <p style=""font-size:50px; font-weight:bold;""
                                ></p>
                                <div style=""width:240px; margin: auto;"">
                                    <img src=""images/D101.png"" style= ""width:200px""alt=""img"">
                                </div>
                            </div>","157","","0","images/D101.png","","","","[""Rectangular"",""Rounded""]"
"","","","","","html-slider-response","65","573792","0.0-59.0","zve7ruqdqo","NaN","<div style=""width:500px;"">
                                <p style=""font-size:50px; font-weight:bold;""
                                ></p>
                                <div style=""width:240px; margin: auto;"">
                                    <img src=""images/D47.png"" style= ""width:200px""alt=""img"">
                                </div>
                            </div>","-135","","0","images/D47.png","","","","[""Rectangular"",""Rounded""]"
"","","","","","html-slider-response","66","575598","0.0-60.0","zve7ruqdqo","NaN","<div style=""width:500px;"">
                                <p style=""font-size:50px; font-weight:bold;""
                                ></p>
                                <div style=""width:240px; margin: auto;"">
                                    <img src=""images/D25.png"" style= ""width:200px""alt=""img"">
                                </div>
                            </div>","-134","","0","images/D25.png","","","","[""Rectangular"",""Rounded""]"
"","","","","","html-slider-response","67","577382","0.0-61.0","zve7ruqdqo","NaN","<div style=""width:500px;"">
                                <p style=""font-size:50px; font-weight:bold;""
                                ></p>
                                <div style=""width:240px; margin: auto;"">
                                    <img src=""images/D8.png"" style= ""width:200px""alt=""img"">
                                </div>
                            </div>","139","","0","images/D8.png","","","","[""Rectangular"",""Rounded""]"
"","","","","","html-slider-response","68","578726","0.0-62.0","zve7ruqdqo","NaN","<div style=""width:500px;"">
                                <p style=""font-size:50px; font-weight:bold;""
                                ></p>
                                <div style=""width:240px; margin: auto;"">
                                    <img src=""images/D29.png"" style= ""width:200px""alt=""img"">
                                </div>
                            </div>","150","","0","images/D29.png","","","","[""Rectangular"",""Rounded""]"
"","","","","","html-slider-response","69","580573","0.0-63.0","zve7ruqdqo","NaN","<div style=""width:500px;"">
                                <p style=""font-size:50px; font-weight:bold;""
                                ></p>
                                <div style=""width:240px; margin: auto;"">
                                    <img src=""images/D85.png"" style= ""width:200px""alt=""img"">
                                </div>
                            </div>","110","","0","images/D85.png","","","","[""Rectangular"",""Rounded""]"
"","","","","","html-slider-response","70","584392","0.0-64.0","zve7ruqdqo","NaN","<div style=""width:500px;"">
                                <p style=""font-size:50px; font-weight:bold;""
                                ></p>
                                <div style=""width:240px; margin: auto;"">
                                    <img src=""images/D84.png"" style= ""width:200px""alt=""img"">
                                </div>
                            </div>","86","","0","images/D84.png","","","","[""Rectangular"",""Rounded""]"
"","","","","","html-slider-response","71","586343","0.0-65.0","zve7ruqdqo","NaN","<div style=""width:500px;"">
                                <p style=""font-size:50px; font-weight:bold;""
                                ></p>
                                <div style=""width:240px; margin: auto;"">
                                    <img src=""images/D52.png"" style= ""width:200px""alt=""img"">
                                </div>
                            </div>","-128","","0","images/D52.png","","","","[""Rectangular"",""Rounded""]"
"","","","","","html-slider-response","72","589543","0.0-66.0","zve7ruqdqo","NaN","<div style=""width:500px;"">
                                <p style=""font-size:50px; font-weight:bold;""
                                ></p>
                                <div style=""width:240px; margin: auto;"">
                                    <img src=""images/D46.png"" style= ""width:200px""alt=""img"">
                                </div>
                            </div>","51","","0","images/D46.png","","","","[""Rectangular"",""Rounded""]"
"","","","","","html-slider-response","73","592198","0.0-67.0","zve7ruqdqo","NaN","<div style=""width:500px;"">
                                <p style=""font-size:50px; font-weight:bold;""
                                ></p>
                                <div style=""width:240px; margin: auto;"">
                                    <img src=""images/D87.png"" style= ""width:200px""alt=""img"">
                                </div>
                            </div>","99","","0","images/D87.png","","","","[""Rectangular"",""Rounded""]"
"","","","","","html-slider-response","74","594482","0.0-68.0","zve7ruqdqo","NaN","<div style=""width:500px;"">
                                <p style=""font-size:50px; font-weight:bold;""
                                ></p>
                                <div style=""width:240px; margin: auto;"">
                                    <img src=""images/D80.png"" style= ""width:200px""alt=""img"">
                                </div>
                            </div>","94","","0","images/D80.png","","","","[""Rectangular"",""Rounded""]"
"","","","","","html-slider-response","75","596462","0.0-69.0","zve7ruqdqo","NaN","<div style=""width:500px;"">
                                <p style=""font-size:50px; font-weight:bold;""
                                ></p>
                                <div style=""width:240px; margin: auto;"">
                                    <img src=""images/D26.png"" style= ""width:200px""alt=""img"">
                                </div>
                            </div>","-198","","0","images/D26.png","","","","[""Rectangular"",""Rounded""]"
"","","","","","html-slider-response","76","598060","0.0-70.0","zve7ruqdqo","NaN","<div style=""width:500px;"">
                                <p style=""font-size:50px; font-weight:bold;""
                                ></p>
                                <div style=""width:240px; margin: auto;"">
                                    <img src=""images/D96.png"" style= ""width:200px""alt=""img"">
                                </div>
                            </div>","-171","","0","images/D96.png","","","","[""Rectangular"",""Rounded""]"
"","","","","","html-slider-response","77","600449","0.0-71.0","zve7ruqdqo","NaN","<div style=""width:500px;"">
                                <p style=""font-size:50px; font-weight:bold;""
                                ></p>
                                <div style=""width:240px; margin: auto;"">
                                    <img src=""images/D20.png"" style= ""width:200px""alt=""img"">
                                </div>
                            </div>","-189","","0","images/D20.png","","","","[""Rectangular"",""Rounded""]"
"","","","","","html-slider-response","78","603023","0.0-72.0","zve7ruqdqo","NaN","<div style=""width:500px;"">
                                <p style=""font-size:50px; font-weight:bold;""
                                ></p>
                                <div style=""width:240px; margin: auto;"">
                                    <img src=""images/D22.png"" style= ""width:200px""alt=""img"">
                                </div>
                            </div>","131","","0","images/D22.png","","","","[""Rectangular"",""Rounded""]"
"","","","","","html-slider-response","79","605276","0.0-73.0","zve7ruqdqo","NaN","<div style=""width:500px;"">
                                <p style=""font-size:50px; font-weight:bold;""
                                ></p>
                                <div style=""width:240px; margin: auto;"">
                                    <img src=""images/D102.png"" style= ""width:200px""alt=""img"">
                                </div>
                            </div>","116","","0","images/D102.png","","","","[""Rectangular"",""Rounded""]"
"","","","","","html-slider-response","80","609051","0.0-74.0","zve7ruqdqo","NaN","<div style=""width:500px;"">
                                <p style=""font-size:50px; font-weight:bold;""
                                ></p>
                                <div style=""width:240px; margin: auto;"">
                                    <img src=""images/D66.png"" style= ""width:200px""alt=""img"">
                                </div>
                            </div>","122","","0","images/D66.png","","","","[""Rectangular"",""Rounded""]"
"","","","","","html-slider-response","81","612880","0.0-75.0","zve7ruqdqo","NaN","<div style=""width:500px;"">
                                <p style=""font-size:50px; font-weight:bold;""
                                ></p>
                                <div style=""width:240px; margin: auto;"">
                                    <img src=""images/D11.png"" style= ""width:200px""alt=""img"">
                                </div>
                            </div>","-129","","0","images/D11.png","","","","[""Rectangular"",""Rounded""]"
"","","","","","html-button-response","82","634404","0.0-76.0","zve7ruqdqo","21023","You have completed the first block of trials out of six. Please click 'Continue' when you are ready proceed.","0","","","","","","",""
"","","","","","html-button-response","83","640767","0.0-77.0","zve7ruqdqo","6363","In the following trials, you will be asked to rate textures on the scale <b>Smooth</b> versus <b>Rough</b>. Please click 'Continue' when you are ready proceed.","0","","","","","","",""
"","","","","","html-slider-response","84","642714","0.0-78.0","zve7ruqdqo","NaN","<div style=""width:500px;"">
                                <p style=""font-size:50px; font-weight:bold;""
                                ></p>
                                <div style=""width:240px; margin: auto;"">
                                    <img src=""images/D103.png"" style= ""width:200px""alt=""img"">
                                </div>
                            </div>","-110","","0","images/D103.png","","","","[""Smooth"",""Rough""]"
"","","","","","html-slider-response","85","644435","0.0-79.0","zve7ruqdqo","NaN","<div style=""width:500px;"">
                                <p style=""font-size:50px; font-weight:bold;""
                                ></p>
                                <div style=""width:240px; margin: auto;"">
                                    <img src=""images/D3.png"" style= ""width:200px""alt=""img"">
                                </div>
                            </div>","-110","","0","images/D3.png","","","","[""Smooth"",""Rough""]"
"","","","","","html-slider-response","86","646135","0.0-80.0","zve7ruqdqo","NaN","<div style=""width:500px;"">
                                <p style=""font-size:50px; font-weight:bold;""
                                ></p>
                                <div style=""width:240px; margin: auto;"">
                                    <img src=""images/D19.png"" style= ""width:200px""alt=""img"">
                                </div>
                            </div>","-79","","0","images/D19.png","","","","[""Smooth"",""Rough""]"
"","","","","","html-slider-response","87","647731","0.0-81.0","zve7ruqdqo","NaN","<div style=""width:500px;"">
                                <p style=""font-size:50px; font-weight:bold;""
                                ></p>
                                <div style=""width:240px; margin: auto;"">
                                    <img src=""images/D34.png"" style= ""width:200px""alt=""img"">
                                </div>
                            </div>","-101","","0","images/D34.png","","","","[""Smooth"",""Rough""]"
"","","","","","html-slider-response","88","649080","0.0-82.0","zve7ruqdqo","NaN","<div style=""width:500px;"">
                                <p style=""font-size:50px; font-weight:bold;""
                                ></p>
                                <div style=""width:240px; margin: auto;"">
                                    <img src=""images/D74.png"" style= ""width:200px""alt=""img"">
                                </div>
                            </div>","159","","0","images/D74.png","","","","[""Smooth"",""Rough""]"
"","","","","","html-slider-response","89","651034","0.0-83.0","zve7ruqdqo","NaN","<div style=""width:500px;"">
                                <p style=""font-size:50px; font-weight:bold;""
                                ></p>
                                <div style=""width:240px; margin: auto;"">
                                    <img src=""images/D35.png"" style= ""width:200px""alt=""img"">
                                </div>
                            </div>","-74","","0","images/D35.png","","","","[""Smooth"",""Rough""]"
"","","","","","html-slider-response","90","653075","0.0-84.0","zve7ruqdqo","NaN","<div style=""width:500px;"">
                                <p style=""font-size:50px; font-weight:bold;""
                                ></p>
                                <div style=""width:240px; margin: auto;"">
                                    <img src=""images/D37.png"" style= ""width:200px""alt=""img"">
                                </div>
                            </div>","-119","","0","images/D37.png","","","","[""Smooth"",""Rough""]"
"","","","","","html-slider-response","91","654920","0.0-85.0","zve7ruqdqo","NaN","<div style=""width:500px;"">
                                <p style=""font-size:50px; font-weight:bold;""
                                ></p>
                                <div style=""width:240px; margin: auto;"">
                                    <img src=""images/D53.png"" style= ""width:200px""alt=""img"">
                                </div>
                            </div>","114","","0","images/D53.png","","","","[""Smooth"",""Rough""]"
"","","","","","html-slider-response","92","656613","0.0-86.0","zve7ruqdqo","NaN","<div style=""width:500px;"">
                                <p style=""font-size:50px; font-weight:bold;""
                                ></p>
                                <div style=""width:240px; margin: auto;"">
                                    <img src=""images/D36.png"" style= ""width:200px""alt=""img"">
                                </div>
                            </div>","-73","","0","images/D36.png","","","","[""Smooth"",""Rough""]"
"","","","","","html-slider-response","93","658257","0.0-87.0","zve7ruqdqo","NaN","<div style=""width:500px;"">
                                <p style=""font-size:50px; font-weight:bold;""
                                ></p>
                                <div style=""width:240px; margin: auto;"">
                                    <img src=""images/D105.png"" style= ""width:200px""alt=""img"">
                                </div>
                            </div>","-89","","0","images/D105.png","","","","[""Smooth"",""Rough""]"
"","","","","","html-slider-response","94","660009","0.0-88.0","zve7ruqdqo","NaN","<div style=""width:500px;"">
                                <p style=""font-size:50px; font-weight:bold;""
                                ></p>
                                <div style=""width:240px; margin: auto;"">
                                    <img src=""images/D104.png"" style= ""width:200px""alt=""img"">
                                </div>
                            </div>","83","","0","images/D104.png","","","","[""Smooth"",""Rough""]"
"","","","","","html-slider-response","95","662146","0.0-89.0","zve7ruqdqo","NaN","<div style=""width:500px;"">
                                <p style=""font-size:50px; font-weight:bold;""
                                ></p>
                                <div style=""width:240px; margin: auto;"">
                                    <img src=""images/D32.png"" style= ""width:200px""alt=""img"">
                                </div>
                            </div>","130","","0","images/D32.png","","","","[""Smooth"",""Rough""]"
"","","","","","html-slider-response","96","664047","0.0-90.0","zve7ruqdqo","NaN","<div style=""width:500px;"">
                                <p style=""font-size:50px; font-weight:bold;""
                                ></p>
                                <div style=""width:240px; margin: auto;"">
                                    <img src=""images/D48.png"" style= ""width:200px""alt=""img"">
                                </div>
                            </div>","-134","","0","images/D48.png","","","","[""Smooth"",""Rough""]"
"","","","","","html-slider-response","97","666230","0.0-91.0","zve7ruqdqo","NaN","<div style=""width:500px;"">
                                <p style=""font-size:50px; font-weight:bold;""
                                ></p>
                                <div style=""width:240px; margin: auto;"">
                                    <img src=""images/D56.png"" style= ""width:200px""alt=""img"">
                                </div>
                            </div>","-80","","0","images/D56.png","","","","[""Smooth"",""Rough""]"
"","","","","","html-slider-response","98","668267","0.0-92.0","zve7ruqdqo","NaN","<div style=""width:500px;"">
                                <p style=""font-size:50px; font-weight:bold;""
                                ></p>
                                <div style=""width:240px; margin: auto;"">
                                    <img src=""images/D9.png"" style= ""width:200px""alt=""img"">
                                </div>
                            </div>","110","","0","images/D9.png","","","","[""Smooth"",""Rough""]"
"","","","","","html-slider-response","99","670089","0.0-93.0","zve7ruqdqo","NaN","<div style=""width:500px;"">
                                <p style=""font-size:50px; font-weight:bold;""
                                ></p>
                                <div style=""width:240px; margin: auto;"">
                                    <img src=""images/D82.png"" style= ""width:200px""alt=""img"">
                                </div>
                            </div>","114","","0","images/D82.png","","","","[""Smooth"",""Rough""]"
"","","","","","html-slider-response","100","671956","0.0-94.0","zve7ruqdqo","NaN","<div style=""width:500px;"">
                                <p style=""font-size:50px; font-weight:bold;""
                                ></p>
                                <div style=""width:240px; margin: auto;"">
                                    <img src=""images/D75.png"" style= ""width:200px""alt=""img"">
                                </div>
                            </div>","-100","","0","images/D75.png","","","","[""Smooth"",""Rough""]"
"","","","","","html-slider-response","101","675766","0.0-95.0","zve7ruqdqo","NaN","<div style=""width:500px;"">
                                <p style=""font-size:50px; font-weight:bold;""
                                ></p>
                                <div style=""width:240px; margin: auto;"">
                                    <img src=""images/D21.png"" style= ""width:200px""alt=""img"">
                                </div>
                            </div>","-99","","0","images/D21.png","","","","[""Smooth"",""Rough""]"
"","","","","","html-slider-response","102","677856","0.0-96.0","zve7ruqdqo","NaN","<div style=""width:500px;"">
                                <p style=""font-size:50px; font-weight:bold;""
                                ></p>
                                <div style=""width:240px; margin: auto;"">
                                    <img src=""images/D1.png"" style= ""width:200px""alt=""img"">
                                </div>
                            </div>","-122","","0","images/D1.png","","","","[""Smooth"",""Rough""]"
"","","","","","html-slider-response","103","679468","0.0-97.0","zve7ruqdqo","NaN","<div style=""width:500px;"">
                                <p style=""font-size:50px; font-weight:bold;""
                                ></p>
                                <div style=""width:240px; margin: auto;"">
                                    <img src=""images/D94.png"" style= ""width:200px""alt=""img"">
                                </div>
                            </div>","-161","","0","images/D94.png","","","","[""Smooth"",""Rough""]"
"","","","","","html-slider-response","104","681095","0.0-98.0","zve7ruqdqo","NaN","<div style=""width:500px;"">
                                <p style=""font-size:50px; font-weight:bold;""
                                ></p>
                                <div style=""width:240px; margin: auto;"">
                                    <img src=""images/D17.png"" style= ""width:200px""alt=""img"">
                                </div>
                            </div>","-106","","0","images/D17.png","","","","[""Smooth"",""Rough""]"
"","","","","","html-slider-response","105","682823","0.0-99.0","zve7ruqdqo","NaN","<div style=""width:500px;"">
                                <p style=""font-size:50px; font-weight:bold;""
                                ></p>
                                <div style=""width:240px; margin: auto;"">
                                    <img src=""images/D106.png"" style= ""width:200px""alt=""img"">
                                </div>
                            </div>","-128","","0","images/D106.png","","","","[""Smooth"",""Rough""]"
"","","","","","html-slider-response","106","684456","0.0-100.0","zve7ruqdqo","NaN","<div style=""width:500px;"">
                                <p style=""font-size:50px; font-weight:bold;""
                                ></p>
                                <div style=""width:240px; margin: auto;"">
                                    <img src=""images/D57.png"" style= ""width:200px""alt=""img"">
                                </div>
                            </div>","104","","0","images/D57.png","","","","[""Smooth"",""Rough""]"
"","","","","","html-slider-response","107","686534","0.0-101.0","zve7ruqdqo","NaN","<div style=""width:500px;"">
                                <p style=""font-size:50px; font-weight:bold;""
                                ></p>
                                <div style=""width:240px; margin: auto;"">
                                    <img src=""images/D83.png"" style= ""width:200px""alt=""img"">
                                </div>
                            </div>","-130","","0","images/D83.png","","","","[""Smooth"",""Rough""]"
"","","","","","html-slider-response","108","688428","0.0-102.0","zve7ruqdqo","NaN","<div style=""width:500px;"">
                                <p style=""font-size:50px; font-weight:bold;""
                                ></p>
                                <div style=""width:240px; margin: auto;"">
                                    <img src=""images/D79.png"" style= ""width:200px""alt=""img"">
                                </div>
                            </div>","-130","","0","images/D79.png","","","","[""Smooth"",""Rough""]"
"","","","","","html-slider-response","109","690583","0.0-103.0","zve7ruqdqo","NaN","<div style=""width:500px;"">
                                <p style=""font-size:50px; font-weight:bold;""
                                ></p>
                                <div style=""width:240px; margin: auto;"">
                                    <img src=""images/D4.png"" style= ""width:200px""alt=""img"">
                                </div>
                            </div>","149","","0","images/D4.png","","","","[""Smooth"",""Rough""]"
"","","","","","html-slider-response","110","692424","0.0-104.0","zve7ruqdqo","NaN","<div style=""width:500px;"">
                                <p style=""font-size:50px; font-weight:bold;""
                                ></p>
                                <div style=""width:240px; margin: auto;"">
                                    <img src=""images/D14.png"" style= ""width:200px""alt=""img"">
                                </div>
                            </div>","-104","","0","images/D14.png","","","","[""Smooth"",""Rough""]"
"","","","","","html-slider-response","111","693797","0.0-105.0","zve7ruqdqo","NaN","<div style=""width:500px;"">
                                <p style=""font-size:50px; font-weight:bold;""
                                ></p>
                                <div style=""width:240px; margin: auto;"">
                                    <img src=""images/D24.png"" style= ""width:200px""alt=""img"">
                                </div>
                            </div>","-7","","0","images/D24.png","","","","[""Smooth"",""Rough""]"
"","","","","","html-slider-response","112","696830","0.0-106.0","zve7ruqdqo","NaN","<div style=""width:500px;"">
                                <p style=""font-size:50px; font-weight:bold;""
                                ></p>
                                <div style=""width:240px; margin: auto;"">
                                    <img src=""images/D92.png"" style= ""width:200px""alt=""img"">
                                </div>
                            </div>","142","","0","images/D92.png","","","","[""Smooth"",""Rough""]"
"","","","","","html-slider-response","113","698996","0.0-107.0","zve7ruqdqo","NaN","<div style=""width:500px;"">
                                <p style=""font-size:50px; font-weight:bold;""
                                ></p>
                                <div style=""width:240px; margin: auto;"">
                                    <img src=""images/D64.png"" style= ""width:200px""alt=""img"">
                                </div>
                            </div>","-160","","0","images/D64.png","","","","[""Smooth"",""Rough""]"
"","","","","","html-slider-response","114","700990","0.0-108.0","zve7ruqdqo","NaN","<div style=""width:500px;"">
                                <p style=""font-size:50px; font-weight:bold;""
                                ></p>
                                <div style=""width:240px; margin: auto;"">
                                    <img src=""images/D111.png"" style= ""width:200px""alt=""img"">
                                </div>
                            </div>","152","","0","images/D111.png","","","","[""Smooth"",""Rough""]"
"","","","","","html-slider-response","115","703212","0.0-109.0","zve7ruqdqo","NaN","<div style=""width:500px;"">
                                <p style=""font-size:50px; font-weight:bold;""
                                ></p>
                                <div style=""width:240px; margin: auto;"">
                                    <img src=""images/D18.png"" style= ""width:200px""alt=""img"">
                                </div>
                            </div>","-143","","0","images/D18.png","","","","[""Smooth"",""Rough""]"
"","","","","","html-slider-response","116","705256","0.0-110.0","zve7ruqdqo","NaN","<div style=""width:500px;"">
                                <p style=""font-size:50px; font-weight:bold;""
                                ></p>
                                <div style=""width:240px; margin: auto;"">
                                    <img src=""images/D49.png"" style= ""width:200px""alt=""img"">
                                </div>
                            </div>","-152","","0","images/D49.png","","","","[""Smooth"",""Rough""]"
"","","","","","html-slider-response","117","707582","0.0-111.0","zve7ruqdqo","NaN","<div style=""width:500px;"">
                                <p style=""font-size:50px; font-weight:bold;""
                                ></p>
                                <div style=""width:240px; margin: auto;"">
                                    <img src=""images/D76.png"" style= ""width:200px""alt=""img"">
                                </div>
                            </div>","141","","0","images/D76.png","","","","[""Smooth"",""Rough""]"
"","","","","","html-slider-response","118","709801","0.0-112.0","zve7ruqdqo","NaN","<div style=""width:500px;"">
                                <p style=""font-size:50px; font-weight:bold;""
                                ></p>
                                <div style=""width:240px; margin: auto;"">
                                    <img src=""images/D16.png"" style= ""width:200px""alt=""img"">
                                </div>
                            </div>","-175","","0","images/D16.png","","","","[""Smooth"",""Rough""]"
"","","","","","html-slider-response","119","712145","0.0-113.0","zve7ruqdqo","NaN","<div style=""width:500px;"">
                                <p style=""font-size:50px; font-weight:bold;""
                                ></p>
                                <div style=""width:240px; margin: auto;"">
                                    <img src=""images/D65.png"" style= ""width:200px""alt=""img"">
                                </div>
                            </div>","-134","","0","images/D65.png","","","","[""Smooth"",""Rough""]"
"","","","","","html-slider-response","120","714434","0.0-114.0","zve7ruqdqo","NaN","<div style=""width:500px;"">
                                <p style=""font-size:50px; font-weight:bold;""
                                ></p>
                                <div style=""width:240px; margin: auto;"">
                                    <img src=""images/D78.png"" style= ""width:200px""alt=""img"">
                                </div>
                            </div>","-157","","0","images/D78.png","","","","[""Smooth"",""Rough""]"
"","","","","","html-slider-response","121","717451","0.0-115.0","zve7ruqdqo","NaN","<div style=""width:500px;"">
                                <p style=""font-size:50px; font-weight:bold;""
                                ></p>
                                <div style=""width:240px; margin: auto;"">
                                    <img src=""images/D55.png"" style= ""width:200px""alt=""img"">
                                </div>
                            </div>","-172","","0","images/D55.png","","","","[""Smooth"",""Rough""]"
"","","","","","html-slider-response","122","719325","0.0-116.0","zve7ruqdqo","NaN","<div style=""width:500px;"">
                                <p style=""font-size:50px; font-weight:bold;""
                                ></p>
                                <div style=""width:240px; margin: auto;"">
                                    <img src=""images/D68.png"" style= ""width:200px""alt=""img"">
                                </div>
                            </div>","-161","","0","images/D68.png","","","","[""Smooth"",""Rough""]"
"","","","","","html-slider-response","123","721724","0.0-117.0","zve7ruqdqo","NaN","<div style=""width:500px;"">
                                <p style=""font-size:50px; font-weight:bold;""
                                ></p>
                                <div style=""width:240px; margin: auto;"">
                                    <img src=""images/D81.png"" style= ""width:200px""alt=""img"">
                                </div>
                            </div>","146","","0","images/D81.png","","","","[""Smooth"",""Rough""]"
"","","","","","html-slider-response","124","723362","0.0-118.0","zve7ruqdqo","NaN","<div style=""width:500px;"">
                                <p style=""font-size:50px; font-weight:bold;""
                                ></p>
                                <div style=""width:240px; margin: auto;"">
                                    <img src=""images/D95.png"" style= ""width:200px""alt=""img"">
                                </div>
                            </div>","-141","","0","images/D95.png","","","","[""Smooth"",""Rough""]"
"","","","","","html-slider-response","125","725511","0.0-119.0","zve7ruqdqo","NaN","<div style=""width:500px;"">
                                <p style=""font-size:50px; font-weight:bold;""
                                ></p>
                                <div style=""width:240px; margin: auto;"">
                                    <img src=""images/D51.png"" style= ""width:200px""alt=""img"">
                                </div>
                            </div>","-167","","0","images/D51.png","","","","[""Smooth"",""Rough""]"
"","","","","","html-slider-response","126","727236","0.0-120.0","zve7ruqdqo","NaN","<div style=""width:500px;"">
                                <p style=""font-size:50px; font-weight:bold;""
                                ></p>
                                <div style=""width:240px; margin: auto;"">
                                    <img src=""images/D6.png"" style= ""width:200px""alt=""img"">
                                </div>
                            </div>","-155","","0","images/D6.png","","","","[""Smooth"",""Rough""]"
"","","","","","html-slider-response","127","730984","0.0-121.0","zve7ruqdqo","NaN","<div style=""width:500px;"">
                                <p style=""font-size:50px; font-weight:bold;""
                                ></p>
                                <div style=""width:240px; margin: auto;"">
                                    <img src=""images/D77.png"" style= ""width:200px""alt=""img"">
                                </div>
                            </div>","-151","","0","images/D77.png","","","","[""Smooth"",""Rough""]"
"","","","","","html-slider-response","128","733124","0.0-122.0","zve7ruqdqo","NaN","<div style=""width:500px;"">
                                <p style=""font-size:50px; font-weight:bold;""
                                ></p>
                                <div style=""width:240px; margin: auto;"">
                                    <img src=""images/D101.png"" style= ""width:200px""alt=""img"">
                                </div>
                            </div>","-162","","0","images/D101.png","","","","[""Smooth"",""Rough""]"
"","","","","","html-slider-response","129","735354","0.0-123.0","zve7ruqdqo","NaN","<div style=""width:500px;"">
                                <p style=""font-size:50px; font-weight:bold;""
                                ></p>
                                <div style=""width:240px; margin: auto;"">
                                    <img src=""images/D47.png"" style= ""width:200px""alt=""img"">
                                </div>
                            </div>","-153","","0","images/D47.png","","","","[""Smooth"",""Rough""]"
"","","","","","html-slider-response","130","736860","0.0-124.0","zve7ruqdqo","NaN","<div style=""width:500px;"">
                                <p style=""font-size:50px; font-weight:bold;""
                                ></p>
                                <div style=""width:240px; margin: auto;"">
                                    <img src=""images/D25.png"" style= ""width:200px""alt=""img"">
                                </div>
                            </div>","-153","","0","images/D25.png","","","","[""Smooth"",""Rough""]"
"","","","","","html-slider-response","131","738757","0.0-125.0","zve7ruqdqo","NaN","<div style=""width:500px;"">
                                <p style=""font-size:50px; font-weight:bold;""
                                ></p>
                                <div style=""width:240px; margin: auto;"">
                                    <img src=""images/D8.png"" style= ""width:200px""alt=""img"">
                                </div>
                            </div>","-152","","0","images/D8.png","","","","[""Smooth"",""Rough""]"
"","","","","","html-slider-response","132","740824","0.0-126.0","zve7ruqdqo","NaN","<div style=""width:500px;"">
                                <p style=""font-size:50px; font-weight:bold;""
                                ></p>
                                <div style=""width:240px; margin: auto;"">
                                    <img src=""images/D29.png"" style= ""width:200px""alt=""img"">
                                </div>
                            </div>","171","","0","images/D29.png","","","","[""Smooth"",""Rough""]"
"","","","","","html-slider-response","133","745783","0.0-127.0","zve7ruqdqo","NaN","<div style=""width:500px;"">
                                <p style=""font-size:50px; font-weight:bold;""
                                ></p>
                                <div style=""width:240px; margin: auto;"">
                                    <img src=""images/D85.png"" style= ""width:200px""alt=""img"">
                                </div>
                            </div>","-122","","0","images/D85.png","","","","[""Smooth"",""Rough""]"
"","","","","","html-slider-response","134","748719","0.0-128.0","zve7ruqdqo","NaN","<div style=""width:500px;"">
                                <p style=""font-size:50px; font-weight:bold;""
                                ></p>
                                <div style=""width:240px; margin: auto;"">
                                    <img src=""images/D84.png"" style= ""width:200px""alt=""img"">
                                </div>
                            </div>","135","","0","images/D84.png","","","","[""Smooth"",""Rough""]"
"","","","","","html-slider-response","135","750653","0.0-129.0","zve7ruqdqo","NaN","<div style=""width:500px;"">
                                <p style=""font-size:50px; font-weight:bold;""
                                ></p>
                                <div style=""width:240px; margin: auto;"">
                                    <img src=""images/D52.png"" style= ""width:200px""alt=""img"">
                                </div>
                            </div>","-159","","0","images/D52.png","","","","[""Smooth"",""Rough""]"
"","","","","","html-slider-response","136","752878","0.0-130.0","zve7ruqdqo","NaN","<div style=""width:500px;"">
                                <p style=""font-size:50px; font-weight:bold;""
                                ></p>
                                <div style=""width:240px; margin: auto;"">
                                    <img src=""images/D46.png"" style= ""width:200px""alt=""img"">
                                </div>
                            </div>","-163","","0","images/D46.png","","","","[""Smooth"",""Rough""]"
"","","","","","html-slider-response","137","754848","0.0-131.0","zve7ruqdqo","NaN","<div style=""width:500px;"">
                                <p style=""font-size:50px; font-weight:bold;""
                                ></p>
                                <div style=""width:240px; margin: auto;"">
                                    <img src=""images/D87.png"" style= ""width:200px""alt=""img"">
                                </div>
                            </div>","122","","0","images/D87.png","","","","[""Smooth"",""Rough""]"
"","","","","","html-slider-response","138","756693","0.0-132.0","zve7ruqdqo","NaN","<div style=""width:500px;"">
                                <p style=""font-size:50px; font-weight:bold;""
                                ></p>
                                <div style=""width:240px; margin: auto;"">
                                    <img src=""images/D80.png"" style= ""width:200px""alt=""img"">
                                </div>
                            </div>","126","","0","images/D80.png","","","","[""Smooth"",""Rough""]"
"","","","","","html-slider-response","139","758983","0.0-133.0","zve7ruqdqo","NaN","<div style=""width:500px;"">
                                <p style=""font-size:50px; font-weight:bold;""
                                ></p>
                                <div style=""width:240px; margin: auto;"">
                                    <img src=""images/D26.png"" style= ""width:200px""alt=""img"">
                                </div>
                            </div>","-147","","0","images/D26.png","","","","[""Smooth"",""Rough""]"
"","","","","","html-slider-response","140","761858","0.0-134.0","zve7ruqdqo","NaN","<div style=""width:500px;"">
                                <p style=""font-size:50px; font-weight:bold;""
                                ></p>
                                <div style=""width:240px; margin: auto;"">
                                    <img src=""images/D96.png"" style= ""width:200px""alt=""img"">
                                </div>
                            </div>","153","","0","images/D96.png","","","","[""Smooth"",""Rough""]"
"","","","","","html-slider-response","141","765232","0.0-135.0","zve7ruqdqo","NaN","<div style=""width:500px;"">
                                <p style=""font-size:50px; font-weight:bold;""
                                ></p>
                                <div style=""width:240px; margin: auto;"">
                                    <img src=""images/D20.png"" style= ""width:200px""alt=""img"">
                                </div>
                            </div>","-149","","0","images/D20.png","","","","[""Smooth"",""Rough""]"
"","","","","","html-slider-response","142","768434","0.0-136.0","zve7ruqdqo","NaN","<div style=""width:500px;"">
                                <p style=""font-size:50px; font-weight:bold;""
                                ></p>
                                <div style=""width:240px; margin: auto;"">
                                    <img src=""images/D22.png"" style= ""width:200px""alt=""img"">
                                </div>
                            </div>","-146","","0","images/D22.png","","","","[""Smooth"",""Rough""]"
"","","","","","html-slider-response","143","771586","0.0-137.0","zve7ruqdqo","NaN","<div style=""width:500px;"">
                                <p style=""font-size:50px; font-weight:bold;""
                                ></p>
                                <div style=""width:240px; margin: auto;"">
                                    <img src=""images/D102.png"" style= ""width:200px""alt=""img"">
                                </div>
                            </div>","-154","","0","images/D102.png","","","","[""Smooth"",""Rough""]"
"","","","","","html-slider-response","144","773804","0.0-138.0","zve7ruqdqo","NaN","<div style=""width:500px;"">
                                <p style=""font-size:50px; font-weight:bold;""
                                ></p>
                                <div style=""width:240px; margin: auto;"">
                                    <img src=""images/D66.png"" style= ""width:200px""alt=""img"">
                                </div>
                            </div>","-154","","0","images/D66.png","","","","[""Smooth"",""Rough""]"
"","","","","","html-slider-response","145","786340","0.0-139.0","zve7ruqdqo","NaN","<div style=""width:500px;"">
                                <p style=""font-size:50px; font-weight:bold;""
                                ></p>
                                <div style=""width:240px; margin: auto;"">
                                    <img src=""images/D11.png"" style= ""width:200px""alt=""img"">
                                </div>
                            </div>","-138","","0","images/D11.png","","","","[""Smooth"",""Rough""]"
"","","","","","html-button-response","146","790283","0.0-140.0","zve7ruqdqo","3440","You have completed the second block of trials out of six. Please click 'Continue' when you are ready proceed.","0","","","","","","",""
"","","","","","html-button-response","147","791947","0.0-141.0","zve7ruqdqo","1664","In the following trials, you will be asked to rate textures on the scale <b>Stripey</b> versus <b>Blobby</b>. Please click 'Continue' when you are ready proceed.","0","","","","","","",""
"","","","","","html-slider-response","148","793398","0.0-142.0","zve7ruqdqo","NaN","<div style=""width:500px;"">
                                <p style=""font-size:50px; font-weight:bold;""
                                ></p>
                                <div style=""width:240px; margin: auto;"">
                                    <img src=""images/D17.png"" style= ""width:200px""alt=""img"">
                                </div>
                            </div>","-122","","0","images/D17.png","","","","[""Stripey"",""Blobby""]"
"","","","","","html-slider-response","149","795464","0.0-143.0","zve7ruqdqo","NaN","<div style=""width:500px;"">
                                <p style=""font-size:50px; font-weight:bold;""
                                ></p>
                                <div style=""width:240px; margin: auto;"">
                                    <img src=""images/D49.png"" style= ""width:200px""alt=""img"">
                                </div>
                            </div>","-160","","0","images/D49.png","","","","[""Stripey"",""Blobby""]"
"","","","","","html-slider-response","150","797204","0.0-144.0","zve7ruqdqo","NaN","<div style=""width:500px;"">
                                <p style=""font-size:50px; font-weight:bold;""
                                ></p>
                                <div style=""width:240px; margin: auto;"">
                                    <img src=""images/D101.png"" style= ""width:200px""alt=""img"">
                                </div>
                            </div>","104","","0","images/D101.png","","","","[""Stripey"",""Blobby""]"
"","","","","","html-slider-response","151","799119","0.0-145.0","zve7ruqdqo","NaN","<div style=""width:500px;"">
                                <p style=""font-size:50px; font-weight:bold;""
                                ></p>
                                <div style=""width:240px; margin: auto;"">
                                    <img src=""images/D104.png"" style= ""width:200px""alt=""img"">
                                </div>
                            </div>","121","","0","images/D104.png","","","","[""Stripey"",""Blobby""]"
"","","","","","html-slider-response","152","801124","0.0-146.0","zve7ruqdqo","NaN","<div style=""width:500px;"">
                                <p style=""font-size:50px; font-weight:bold;""
                                ></p>
                                <div style=""width:240px; margin: auto;"">
                                    <img src=""images/D76.png"" style= ""width:200px""alt=""img"">
                                </div>
                            </div>","-77","","0","images/D76.png","","","","[""Stripey"",""Blobby""]"
"","","","","","html-slider-response","153","802886","0.0-147.0","zve7ruqdqo","NaN","<div style=""width:500px;"">
                                <p style=""font-size:50px; font-weight:bold;""
                                ></p>
                                <div style=""width:240px; margin: auto;"">
                                    <img src=""images/D9.png"" style= ""width:200px""alt=""img"">
                                </div>
                            </div>","140","","0","images/D9.png","","","","[""Stripey"",""Blobby""]"
"","","","","","html-slider-response","154","804870","0.0-148.0","zve7ruqdqo","NaN","<div style=""width:500px;"">
                                <p style=""font-size:50px; font-weight:bold;""
                                ></p>
                                <div style=""width:240px; margin: auto;"">
                                    <img src=""images/D22.png"" style= ""width:200px""alt=""img"">
                                </div>
                            </div>","72","","0","images/D22.png","","","","[""Stripey"",""Blobby""]"
"","","","","","html-slider-response","155","807099","0.0-149.0","zve7ruqdqo","NaN","<div style=""width:500px;"">
                                <p style=""font-size:50px; font-weight:bold;""
                                ></p>
                                <div style=""width:240px; margin: auto;"">
                                    <img src=""images/D82.png"" style= ""width:200px""alt=""img"">
                                </div>
                            </div>","-82","","0","images/D82.png","","","","[""Stripey"",""Blobby""]"
"","","","","","html-slider-response","156","808761","0.0-150.0","zve7ruqdqo","NaN","<div style=""width:500px;"">
                                <p style=""font-size:50px; font-weight:bold;""
                                ></p>
                                <div style=""width:240px; margin: auto;"">
                                    <img src=""images/D24.png"" style= ""width:200px""alt=""img"">
                                </div>
                            </div>","123","","0","images/D24.png","","","","[""Stripey"",""Blobby""]"
"","","","","","html-slider-response","157","810176","0.0-151.0","zve7ruqdqo","NaN","<div style=""width:500px;"">
                                <p style=""font-size:50px; font-weight:bold;""
                                ></p>
                                <div style=""width:240px; margin: auto;"">
                                    <img src=""images/D75.png"" style= ""width:200px""alt=""img"">
                                </div>
                            </div>","122","","0","images/D75.png","","","","[""Stripey"",""Blobby""]"
"","","","","","html-slider-response","158","811487","0.0-152.0","zve7ruqdqo","NaN","<div style=""width:500px;"">
                                <p style=""font-size:50px; font-weight:bold;""
                                ></p>
                                <div style=""width:240px; margin: auto;"">
                                    <img src=""images/D32.png"" style= ""width:200px""alt=""img"">
                                </div>
                            </div>","121","","0","images/D32.png","","","","[""Stripey"",""Blobby""]"
"","","","","","html-slider-response","159","813308","0.0-153.0","zve7ruqdqo","NaN","<div style=""width:500px;"">
                                <p style=""font-size:50px; font-weight:bold;""
                                ></p>
                                <div style=""width:240px; margin: auto;"">
                                    <img src=""images/D79.png"" style= ""width:200px""alt=""img"">
                                </div>
                            </div>","-82","","0","images/D79.png","","","","[""Stripey"",""Blobby""]"
"","","","","","html-slider-response","160","815251","0.0-154.0","zve7ruqdqo","NaN","<div style=""width:500px;"">
                                <p style=""font-size:50px; font-weight:bold;""
                                ></p>
                                <div style=""width:240px; margin: auto;"">
                                    <img src=""images/D21.png"" style= ""width:200px""alt=""img"">
                                </div>
                            </div>","-70","","0","images/D21.png","","","","[""Stripey"",""Blobby""]"
"","","","","","html-slider-response","161","816734","0.0-155.0","zve7ruqdqo","NaN","<div style=""width:500px;"">
                                <p style=""font-size:50px; font-weight:bold;""
                                ></p>
                                <div style=""width:240px; margin: auto;"">
                                    <img src=""images/D8.png"" style= ""width:200px""alt=""img"">
                                </div>
                            </div>","88","","0","images/D8.png","","","","[""Stripey"",""Blobby""]"
"","","","","","html-slider-response","162","818762","0.0-156.0","zve7ruqdqo","NaN","<div style=""width:500px;"">
                                <p style=""font-size:50px; font-weight:bold;""
                                ></p>
                                <div style=""width:240px; margin: auto;"">
                                    <img src=""images/D65.png"" style= ""width:200px""alt=""img"">
                                </div>
                            </div>","-90","","0","images/D65.png","","","","[""Stripey"",""Blobby""]"
"","","","","","html-slider-response","163","820866","0.0-157.0","zve7ruqdqo","NaN","<div style=""width:500px;"">
                                <p style=""font-size:50px; font-weight:bold;""
                                ></p>
                                <div style=""width:240px; margin: auto;"">
                                    <img src=""images/D46.png"" style= ""width:200px""alt=""img"">
                                </div>
                            </div>","-91","","0","images/D46.png","","","","[""Stripey"",""Blobby""]"
"","","","","","html-slider-response","164","822561","0.0-158.0","zve7ruqdqo","NaN","<div style=""width:500px;"">
                                <p style=""font-size:50px; font-weight:bold;""
                                ></p>
                                <div style=""width:240px; margin: auto;"">
                                    <img src=""images/D78.png"" style= ""width:200px""alt=""img"">
                                </div>
                            </div>","-136","","0","images/D78.png","","","","[""Stripey"",""Blobby""]"
"","","","","","html-slider-response","165","824349","0.0-159.0","zve7ruqdqo","NaN","<div style=""width:500px;"">
                                <p style=""font-size:50px; font-weight:bold;""
                                ></p>
                                <div style=""width:240px; margin: auto;"">
                                    <img src=""images/D83.png"" style= ""width:200px""alt=""img"">
                                </div>
                            </div>","-128","","0","images/D83.png","","","","[""Stripey"",""Blobby""]"
"","","","","","html-slider-response","166","826603","0.0-160.0","zve7ruqdqo","NaN","<div style=""width:500px;"">
                                <p style=""font-size:50px; font-weight:bold;""
                                ></p>
                                <div style=""width:240px; margin: auto;"">
                                    <img src=""images/D16.png"" style= ""width:200px""alt=""img"">
                                </div>
                            </div>","-144","","0","images/D16.png","","","","[""Stripey"",""Blobby""]"
"","","","","","html-slider-response","167","828459","0.0-161.0","zve7ruqdqo","NaN","<div style=""width:500px;"">
                                <p style=""font-size:50px; font-weight:bold;""
                                ></p>
                                <div style=""width:240px; margin: auto;"">
                                    <img src=""images/D11.png"" style= ""width:200px""alt=""img"">
                                </div>
                            </div>","-166","","0","images/D11.png","","","","[""Stripey"",""Blobby""]"
"","","","","","html-slider-response","168","829956","0.0-162.0","zve7ruqdqo","NaN","<div style=""width:500px;"">
                                <p style=""font-size:50px; font-weight:bold;""
                                ></p>
                                <div style=""width:240px; margin: auto;"">
                                    <img src=""images/D81.png"" style= ""width:200px""alt=""img"">
                                </div>
                            </div>","120","","0","images/D81.png","","","","[""Stripey"",""Blobby""]"
"","","","","","html-slider-response","169","832117","0.0-163.0","zve7ruqdqo","NaN","<div style=""width:500px;"">
                                <p style=""font-size:50px; font-weight:bold;""
                                ></p>
                                <div style=""width:240px; margin: auto;"">
                                    <img src=""images/D57.png"" style= ""width:200px""alt=""img"">
                                </div>
                            </div>","145","","0","images/D57.png","","","","[""Stripey"",""Blobby""]"
"","","","","","html-slider-response","170","833815","0.0-164.0","zve7ruqdqo","NaN","<div style=""width:500px;"">
                                <p style=""font-size:50px; font-weight:bold;""
                                ></p>
                                <div style=""width:240px; margin: auto;"">
                                    <img src=""images/D56.png"" style= ""width:200px""alt=""img"">
                                </div>
                            </div>","-146","","0","images/D56.png","","","","[""Stripey"",""Blobby""]"
"","","","","","html-slider-response","171","835737","0.0-165.0","zve7ruqdqo","NaN","<div style=""width:500px;"">
                                <p style=""font-size:50px; font-weight:bold;""
                                ></p>
                                <div style=""width:240px; margin: auto;"">
                                    <img src=""images/D52.png"" style= ""width:200px""alt=""img"">
                                </div>
                            </div>","-146","","0","images/D52.png","","","","[""Stripey"",""Blobby""]"
"","","","","","html-slider-response","172","838573","0.0-166.0","zve7ruqdqo","NaN","<div style=""width:500px;"">
                                <p style=""font-size:50px; font-weight:bold;""
                                ></p>
                                <div style=""width:240px; margin: auto;"">
                                    <img src=""images/D14.png"" style= ""width:200px""alt=""img"">
                                </div>
                            </div>","-129","","0","images/D14.png","","","","[""Stripey"",""Blobby""]"
"","","","","","html-slider-response","173","839902","0.0-167.0","zve7ruqdqo","NaN","<div style=""width:500px;"">
                                <p style=""font-size:50px; font-weight:bold;""
                                ></p>
                                <div style=""width:240px; margin: auto;"">
                                    <img src=""images/D68.png"" style= ""width:200px""alt=""img"">
                                </div>
                            </div>","-118","","0","images/D68.png","","","","[""Stripey"",""Blobby""]"
"","","","","","html-slider-response","174","841127","0.0-168.0","zve7ruqdqo","NaN","<div style=""width:500px;"">
                                <p style=""font-size:50px; font-weight:bold;""
                                ></p>
                                <div style=""width:240px; margin: auto;"">
                                    <img src=""images/D103.png"" style= ""width:200px""alt=""img"">
                                </div>
                            </div>","-118","","0","images/D103.png","","","","[""Stripey"",""Blobby""]"
"","","","","","html-slider-response","175","842983","0.0-169.0","zve7ruqdqo","NaN","<div style=""width:500px;"">
                                <p style=""font-size:50px; font-weight:bold;""
                                ></p>
                                <div style=""width:240px; margin: auto;"">
                                    <img src=""images/D37.png"" style= ""width:200px""alt=""img"">
                                </div>
                            </div>","137","","0","images/D37.png","","","","[""Stripey"",""Blobby""]"
"","","","","","html-slider-response","176","844576","0.0-170.0","zve7ruqdqo","NaN","<div style=""width:500px;"">
                                <p style=""font-size:50px; font-weight:bold;""
                                ></p>
                                <div style=""width:240px; margin: auto;"">
                                    <img src=""images/D20.png"" style= ""width:200px""alt=""img"">
                                </div>
                            </div>","-138","","0","images/D20.png","","","","[""Stripey"",""Blobby""]"
"","","","","","html-slider-response","177","846850","0.0-171.0","zve7ruqdqo","NaN","<div style=""width:500px;"">
                                <p style=""font-size:50px; font-weight:bold;""
                                ></p>
                                <div style=""width:240px; margin: auto;"">
                                    <img src=""images/D36.png"" style= ""width:200px""alt=""img"">
                                </div>
                            </div>","172","","0","images/D36.png","","","","[""Stripey"",""Blobby""]"
"","","","","","html-slider-response","178","848640","0.0-172.0","zve7ruqdqo","NaN","<div style=""width:500px;"">
                                <p style=""font-size:50px; font-weight:bold;""
                                ></p>
                                <div style=""width:240px; margin: auto;"">
                                    <img src=""images/D85.png"" style= ""width:200px""alt=""img"">
                                </div>
                            </div>","-143","","0","images/D85.png","","","","[""Stripey"",""Blobby""]"
"","","","","","html-slider-response","179","851259","0.0-173.0","zve7ruqdqo","NaN","<div style=""width:500px;"">
                                <p style=""font-size:50px; font-weight:bold;""
                                ></p>
                                <div style=""width:240px; margin: auto;"">
                                    <img src=""images/D18.png"" style= ""width:200px""alt=""img"">
                                </div>
                            </div>","-167","","0","images/D18.png","","","","[""Stripey"",""Blobby""]"
"","","","","","html-slider-response","180","853315","0.0-174.0","zve7ruqdqo","NaN","<div style=""width:500px;"">
                                <p style=""font-size:50px; font-weight:bold;""
                                ></p>
                                <div style=""width:240px; margin: auto;"">
                                    <img src=""images/D55.png"" style= ""width:200px""alt=""img"">
                                </div>
                            </div>","-104","","0","images/D55.png","","","","[""Stripey"",""Blobby""]"
"","","","","","html-slider-response","181","854864","0.0-175.0","zve7ruqdqo","NaN","<div style=""width:500px;"">
                                <p style=""font-size:50px; font-weight:bold;""
                                ></p>
                                <div style=""width:240px; margin: auto;"">
                                    <img src=""images/D96.png"" style= ""width:200px""alt=""img"">
                                </div>
                            </div>","-77","","0","images/D96.png","","","","[""Stripey"",""Blobby""]"
"","","","","","html-slider-response","182","856667","0.0-176.0","zve7ruqdqo","NaN","<div style=""width:500px;"">
                                <p style=""font-size:50px; font-weight:bold;""
                                ></p>
                                <div style=""width:240px; margin: auto;"">
                                    <img src=""images/D94.png"" style= ""width:200px""alt=""img"">
                                </div>
                            </div>","-131","","0","images/D94.png","","","","[""Stripey"",""Blobby""]"
"","","","","","html-slider-response","183","858207","0.0-177.0","zve7ruqdqo","NaN","<div style=""width:500px;"">
                                <p style=""font-size:50px; font-weight:bold;""
                                ></p>
                                <div style=""width:240px; margin: auto;"">
                                    <img src=""images/D4.png"" style= ""width:200px""alt=""img"">
                                </div>
                            </div>","88","","0","images/D4.png","","","","[""Stripey"",""Blobby""]"
"","","","","","html-slider-response","184","859741","0.0-178.0","zve7ruqdqo","NaN","<div style=""width:500px;"">
                                <p style=""font-size:50px; font-weight:bold;""
                                ></p>
                                <div style=""width:240px; margin: auto;"">
                                    <img src=""images/D84.png"" style= ""width:200px""alt=""img"">
                                </div>
                            </div>","89","","0","images/D84.png","","","","[""Stripey"",""Blobby""]"
"","","","","","html-slider-response","185","861213","0.0-179.0","zve7ruqdqo","NaN","<div style=""width:500px;"">
                                <p style=""font-size:50px; font-weight:bold;""
                                ></p>
                                <div style=""width:240px; margin: auto;"">
                                    <img src=""images/D48.png"" style= ""width:200px""alt=""img"">
                                </div>
                            </div>","89","","0","images/D48.png","","","","[""Stripey"",""Blobby""]"
"","","","","","html-slider-response","186","862518","0.0-180.0","zve7ruqdqo","NaN","<div style=""width:500px;"">
                                <p style=""font-size:50px; font-weight:bold;""
                                ></p>
                                <div style=""width:240px; margin: auto;"">
                                    <img src=""images/D35.png"" style= ""width:200px""alt=""img"">
                                </div>
                            </div>","89","","0","images/D35.png","","","","[""Stripey"",""Blobby""]"
"","","","","","html-slider-response","187","863750","0.0-181.0","zve7ruqdqo","NaN","<div style=""width:500px;"">
                                <p style=""font-size:50px; font-weight:bold;""
